File: module_examples/HW/HW3/xrd_csv_files/co3o4_RT_neutron.txt
x	y_obs
3.19	44030
3.29	46231
3.39	46080
3.49	45414
3.59	45430
3.69	44414
3.79	44197
3.89	43818
3.99	43260
4.09	43518
4.19	43609
4.29	43701
4.39	44984
4.49	46981
4.59	49760
4.69	53767
4.79	57277
4.89	60796
4.99	64319
5.09	67175
5.19	70465
5.29	73367
5.39	76227
5.49	79064
5.59	80696
5.69	83996
5.79	85016
5.89	86672
5.99	87475
6.09	87544
6.19	85849
6.29	86217
6.39	84337
6.49	84763
6.59	83856
6.69	82447
6.79	81722
6.89	80894
6.99	80035
7.09	79078
7.19	77736
7.29	77168
7.39	76573
7.49	75702
7.59	74278
7.69	73128
7.79	72686
7.89	71138
7.99	70174
8.09	68901
8.19	68607
8.29	67656
8.39	66668
8.49	66203
8.59	64825
8.69	63946
8.79	62896
8.89	61646
8.99	61153
9.09	59713
9.19	58614
9.29	57951
9.39	57100
9.49	56322
9.59	55177
9.69	54746
9.79	53482
9.89	52361
9.99	51960
10.09	50956
10.19	50147
10.29	49530
10.39	48725
10.49	47641
10.59	47413
10.69	46574
10.79	45949
10.89	45553
10.99	45124
11.09	45328
11.19	44869
11.29	45145
11.39	44333
11.49	44845
11.59	44435
11.69	43995
11.79	44314
11.89	44199
11.99	44520
12.09	44551
12.19	44305
12.29	44684
12.39	43871
12.49	44695
12.59	43781
12.69	44270
12.79	43945
12.89	43925
12.99	44241
13.09	43919
13.19	44059
13.29	44108
13.39	43735
13.49	43720
13.59	43746
13.69	43866
13.79	43925
13.89	43826
13.99	43898
14.09	44122
14.19	43896
14.29	43703
14.39	43969
14.49	43538
14.59	43518
14.69	43627
14.79	43882
14.89	43735
14.99	43924
15.09	43545
15.19	44058
15.29	43864
15.39	44545
15.49	44192
15.59	43922
15.69	43927
15.79	43999
15.89	43215
15.99	43840
16.09	43619
16.19	43370
16.29	43358
16.39	43397
16.49	43567
16.59	43564
16.69	43745
16.79	43647
16.89	43293
16.99	43227
17.09	43418
17.19	43432
17.29	43968
17.39	43703
17.49	43668
17.59	43639
17.69	43441
17.79	43463
17.89	43755
17.99	43879
18.09	43837
18.19	43747
18.29	44027
18.39	43679
18.49	43762
18.59	43256
18.69	43446
18.79	43748
18.89	43480
18.99	43997
19.09	43703
19.19	43342
19.29	43356
19.39	43742
19.49	43774
19.59	43402
19.69	43358
19.79	43327
19.89	43567
19.99	43366
20.09	43199
20.19	43259
20.29	43674
20.39	43172
20.49	43362
20.59	43480
20.69	43653
20.79	43495
20.89	43874
20.99	43571
21.09	43429
21.19	43385
21.29	43657
21.39	43565
21.49	43538
21.59	43305
21.69	43691
21.79	43386
21.89	43086
21.99	43330
22.09	43485
22.19	43713
22.29	43398
22.39	43583
22.49	43250
22.59	43354
22.69	43431
22.79	43332
22.89	42930
22.99	43564
23.09	43438
23.19	43094
23.29	43073
23.39	43775
23.49	43001
23.59	43391
23.69	43391
23.79	43633
23.89	43570
23.99	43742
24.09	43614
24.19	43973
24.29	43458
24.39	43319
24.49	42935
24.59	43383
24.69	43470
24.79	43526
24.89	43566
24.99	43364
25.09	43549
25.19	43528
25.29	43979
25.39	43588
25.49	43819
25.59	44063
25.69	43471
25.79	43651
25.89	43967
25.99	43740
26.09	43506
26.19	43685
26.29	43320
26.39	43649
26.49	43322
26.59	44159
26.69	43411
26.79	43226
26.89	43234
26.99	43345
27.09	43508
27.19	43700
27.29	43570
27.39	43667
27.49	43453
27.59	43549
27.69	43922
27.79	43504
27.89	43684
27.99	43596
28.09	43819
28.19	44076
28.29	43942
28.39	43894
28.49	43965
28.59	43401
28.69	43534
28.79	44062
28.89	44005
28.99	43807
29.09	43982
29.19	43987
29.29	43681
29.39	43936
29.49	44017
29.59	44483
29.69	44310
29.79	44552
29.89	44654
29.99	44289
30.09	44875
30.19	44346
30.29	44461
30.39	44695
30.49	45454
30.59	45596
30.69	46262
30.79	47541
30.89	49625
30.99	52699
31.09	56966
31.19	61751
31.29	65309
31.39	65128
31.49	61747
31.59	57485
31.69	52593
31.79	49423
31.89	47441
31.99	46204
32.09	45455
32.19	45366
32.29	44772
32.39	44637
32.49	44678
32.59	44069
32.69	44492
32.79	44127
32.89	43790
32.99	44008
33.09	43704
33.19	44120
33.29	44106
33.39	43494
33.49	43844
33.59	43659
33.69	43855
33.79	43858
33.89	43855
33.99	44135
34.09	43840
34.19	44435
34.29	44074
34.39	43996
34.49	44085
34.59	43615
34.69	43608
34.79	43377
34.89	43672
34.99	44041
35.09	43585
35.19	43708
35.29	43577
35.39	43547
35.49	43567
35.59	43718
35.69	43595
35.79	43569
35.89	43754
35.99	44144
36.09	44483
36.19	45688
36.29	46897
36.39	47054
36.49	46147
36.59	45667
36.69	44710
36.79	44018
36.89	43440
36.99	43578
37.09	43713
37.19	43481
37.29	43274
37.39	43495
37.49	43714
37.59	43376
37.69	43061
37.79	43061
37.89	42932
37.99	43032
38.09	43160
38.19	43209
38.29	43486
38.39	42817
38.49	43088
38.59	43246
38.69	42953
38.79	42917
38.89	42854
38.99	43031
39.09	43067
39.19	43190
39.29	43299
39.39	43271
39.49	43154
39.59	42765
39.69	43182
39.79	43353
39.89	43380
39.99	42765
40.09	43030
40.19	43093
40.29	43183
40.39	42444
40.49	42661
40.59	42594
40.69	42761
40.79	42911
40.89	42734
40.99	42939
41.09	42643
41.19	42596
41.29	42322
41.39	42348
41.49	42662
41.59	42471
41.69	42877
41.79	42689
41.89	42779
41.99	42590
42.09	42685
42.19	42985
42.29	42542
42.39	42826
42.49	43029
42.59	42590
42.69	42704
42.79	42786
42.89	42668
42.99	42654
43.09	42669
43.19	42727
43.29	42612
43.39	42883
43.49	42626
43.59	42856
43.69	42804
43.79	42705
43.89	42453
43.99	42558
44.09	43158
44.19	42259
44.29	42602
44.39	42710
44.49	43176
44.59	42742
44.69	43015
44.79	42503
44.89	42796
44.99	42664
45.09	42809
45.19	42463
45.29	42448
45.39	42542
45.49	42593
45.59	42807
45.69	42914
45.79	42361
45.89	42758
45.99	42612
46.09	42334
46.19	42751
46.29	42562
46.39	42334
46.49	42731
46.59	42996
46.69	42427
46.79	42742
46.89	42173
46.99	42067
47.09	42611
47.19	42791
47.29	43005
47.39	42718
47.49	43215
47.59	43534
47.69	43671
47.79	43806
47.89	43861
47.99	43880
48.09	43447
48.19	43027
48.29	42646
48.39	42633
48.49	42399
48.59	42635
48.69	42591
48.79	42998
48.89	42472
48.99	42699
49.09	42427
49.19	42683
49.29	42452
49.39	43033
49.49	42780
49.59	42537
49.69	42552
49.79	42227
49.89	43066
49.99	42638
50.09	42589
50.19	42903
50.29	42760
50.39	42292
50.49	42390
50.59	42858
50.69	42419
50.79	42720
50.89	42816
50.99	42633
51.09	42824
51.19	42960
51.29	42614
51.39	42995
51.49	43178
51.59	43721
51.69	43253
51.79	44203
51.89	45145
51.99	46549
52.09	47882
52.19	49218
52.29	51284
52.39	51890
52.49	50937
52.59	49715
52.69	47706
52.79	46099
52.89	44895
52.99	43683
53.09	43229
53.19	43023
53.29	42870
53.39	42764
53.49	42500
53.59	42833
53.69	42470
53.79	42610
53.89	42704
53.99	42088
54.09	42509
54.19	42537
54.29	42425
54.39	42328
54.49	42813
54.59	42669
54.69	42678
54.79	42346
54.89	42726
54.99	42983
55.09	42648
55.19	42311
55.29	42851
55.39	42729
55.49	42691
55.59	42573
55.69	42471
55.79	42715
55.89	42382
55.99	42286
56.09	42636
56.19	42091
56.29	42761
56.39	42694
56.49	42582
56.59	42563
56.69	42344
56.79	42479
56.89	42246
56.99	42505
57.09	42117
57.19	42288
57.29	42398
57.39	42127
57.49	42387
57.59	42017
57.69	42052
57.79	42110
57.89	42274
57.99	42181
58.09	42382
58.19	42316
58.29	42561
58.39	42103
58.49	42273
58.59	42294
58.69	42387
58.79	42235
58.89	42323
58.99	42180
59.09	42633
59.19	42449
59.29	42361
59.39	42535
59.49	42151
59.59	42333
59.69	42446
59.79	42412
59.89	42597
59.99	42342
60.09	42972
60.19	42638
60.29	42654
60.39	42502
60.49	42504
60.59	42670
60.69	42494
60.79	42585
60.89	42736
60.99	42458
61.09	42924
61.19	43320
61.29	43508
61.39	43392
61.49	43974
61.59	44838
61.69	44779
61.79	45933
61.89	46443
61.99	47944
62.09	48905
62.19	50268
62.29	50423
62.39	50623
62.49	49643
62.59	48735
62.69	47760
62.79	46901
62.89	45772
62.99	44947
63.09	44155
63.19	43784
63.29	43761
63.39	43789
63.49	43892
63.59	44228
63.69	43816
63.79	44108
63.89	44329
63.99	45084
64.09	45507
64.19	46090
64.29	47263
64.39	48984
64.49	51187
64.59	54319
64.69	59096
64.79	65786
64.89	72608
64.99	80798
65.09	89328
65.19	97555
65.29	103833
65.39	108362
65.49	107983
65.59	104382
65.69	99098
65.79	89894
65.89	81076
65.99	72834
66.09	64925
66.19	58938
66.29	54632
66.39	51323
66.49	48970
66.59	46818
66.69	46216
66.79	45446
66.89	44750
66.99	44513
67.09	43649
67.19	43573
67.29	43213
67.39	43043
67.49	43045
67.59	43275
67.69	43353
67.79	42912
67.89	42861
67.99	42367
68.09	42617
68.19	42160
68.29	41596
68.39	41833
68.49	41312
68.59	41194
68.69	40872
68.79	41491
68.89	41426
68.99	40904
69.09	41102
69.19	41187
69.29	41451
69.39	40801
69.49	41326
69.59	41041
69.69	40716
69.79	40715
69.89	40846
69.99	41049
70.09	40939
70.19	40454
70.29	40449
70.39	40924
70.49	40612
70.59	40701
70.69	40689
70.79	40444
70.89	40535
70.99	40979
71.09	41016
71.19	41096
71.29	41620
71.39	41852
71.49	42134
71.59	42695
71.69	43245
71.79	43494
71.89	43690
71.99	44169
72.09	44496
72.19	44316
72.29	43711
72.39	43585
72.49	43241
72.59	42953
72.69	42247
72.79	41754
72.89	41430
72.99	41446
73.09	41263
73.19	40950
73.29	40706
73.39	40818
73.49	40698
73.59	40940
73.69	41335
73.79	40906
73.89	40728
73.99	40794
74.09	40475
74.19	40662
74.29	40859
74.39	40840
74.49	40641
74.59	40632
74.69	40486
74.79	40925
74.89	40730
74.99	41209
75.09	40980
75.19	41298
75.29	41822
75.39	41570
75.49	41953
75.59	42739
75.69	42909
75.79	44163
75.89	45523
75.99	46870
76.09	48399
76.19	51469
76.29	54790
76.39	59588
76.49	64485
76.59	70709
76.69	76811
76.79	84518
76.89	90420
76.99	97030
77.09	101256
77.19	103935
77.29	104222
77.39	101991
77.49	98361
77.59	92202
77.69	86028
77.79	78837
77.89	71788
77.99	65792
78.09	60316
78.19	55495
78.29	52918
78.39	49969
78.49	47797
78.59	46098
78.69	45000
78.79	44455
78.89	43395
78.99	42987
79.09	42833
79.19	42250
79.29	42196
79.39	41794
79.49	41356
79.59	41541
79.69	41219
79.79	40714
79.89	40741
79.99	40209
80.09	40183
80.19	40295
80.29	39827
80.39	40127
80.49	40072
80.59	39418
80.69	39584
80.79	39452
80.89	40079
80.99	39608
81.09	39578
81.19	39298
81.29	39063
81.39	39233
81.49	39259
81.59	39332
81.69	39187
81.79	39232
81.89	39436
81.99	39524
82.09	38789
82.19	39005
82.29	39399
82.39	38656
82.49	38998
82.59	39020
82.69	38934
82.79	38499
82.89	38656
82.99	39015
83.09	39047
83.19	38573
83.29	38762
83.39	38830
83.49	39008
83.59	38467
83.69	38792
83.79	38238
83.89	38959
83.99	39017
84.09	39249
84.19	39236
84.29	38612
84.39	39131
84.49	39469
84.59	40037
84.69	40499
84.79	40846
84.89	41011
84.99	41577
85.09	42486
85.19	42502
85.29	43097
85.39	43362
85.49	43945
85.59	44288
85.69	44336
85.79	43828
85.89	43629
85.99	43614
86.09	42629
86.19	42287
86.29	41702
86.39	41164
86.49	40269
86.59	39577
86.69	39666
86.79	39193
86.89	39002
86.99	38609
87.09	38860
87.19	38384
87.29	38332
87.39	38655
87.49	38117
87.59	37999
87.69	38054
87.79	38125
87.89	38193
87.99	38428
88.09	38645
88.19	38418
88.29	38455
88.39	38503
88.49	39055
88.59	39032
88.69	38853
88.79	38566
88.89	38725
88.99	38613
89.09	38239
89.19	38462
89.29	37833
89.39	38021
89.49	37803
89.59	37550
89.69	37918
89.79	37913
89.89	37703
89.99	38200
90.09	37771
90.19	38002
90.29	37847
90.39	37912
90.49	37982
90.59	37782
90.69	38053
90.79	38048
90.89	37896
90.99	37946
91.09	37937
91.19	37569
91.29	37864
91.39	37920
91.49	37644
91.59	37569
91.69	37451
91.79	37296
91.89	37499
91.99	37547
92.09	37741
92.19	37500
92.29	37508
92.39	37497
92.49	37730
92.59	37476
92.69	37743
92.79	37177
92.89	37559
92.99	37359
93.09	37652
93.19	37675
93.29	37653
93.39	37355
93.49	37274
93.59	37540
93.69	37268
93.79	37524
93.89	37333
93.99	37499
94.09	37909
94.19	37677
94.29	37554
94.39	37188
94.49	37255
94.59	37520
94.69	37610
94.79	37431
94.89	37438
94.99	37233
95.09	37705
95.19	37550
95.29	37276
95.39	37106
95.49	37399
95.59	37323
95.69	37662
95.79	37180
95.89	38080
95.99	37835
96.09	37800
96.19	37744
96.29	38180
96.39	37636
96.49	37871
96.59	37759
96.69	37723
96.79	37213
96.89	37480
96.99	37275
97.09	37608
97.19	37374
97.29	37343
97.39	37086
97.49	37925
97.59	37044
97.69	37239
97.79	37428
97.89	37554
97.99	37348
98.09	37368
98.19	37192
98.29	37272
98.39	37127
98.49	37322
98.59	37494
98.69	37516
98.79	37679
98.89	37725
98.99	37768
99.09	37478
99.19	38240
99.29	38334
99.39	38743
99.49	38522
99.59	38504
99.69	38738
99.79	39036
99.89	38956
99.99	38816
100.09	38559
100.19	38547
100.29	38293
100.39	38288
100.49	37778
100.59	37407
100.69	37723
100.79	37190
100.89	37668
100.99	37504
101.09	37393
101.19	37433
101.29	37250
101.39	37220
101.49	36889
101.59	37290
101.69	37355
101.79	37753
101.89	37609
101.99	37504
102.09	37214
102.19	37301
102.29	37140
102.39	37162
102.49	37434
102.59	37192
102.69	37176
102.79	37282
102.89	37226
102.99	37067
103.09	37232
103.19	36823
103.29	37480
103.39	36912
103.49	37227
103.59	37435
103.69	37075
103.79	37090
103.89	36974
103.99	37119
104.09	37265
104.19	37024
104.29	37431
104.39	37737
104.49	37111
104.59	37281
104.69	37624
104.79	37792
104.89	37569
104.99	37855
105.09	37443
105.19	37641
105.29	37952
105.39	38032
105.49	37974
105.59	37893
105.69	38293
105.79	38654
105.89	38601
105.99	38920
106.09	38930
106.19	39317
106.29	39906
106.39	40096
106.49	40996
106.59	41909
106.69	42817
106.79	43843
106.89	44704
106.99	46176
107.09	47742
107.19	48929
107.29	50288
107.39	52072
107.49	53842
107.59	55410
107.69	57343
107.79	58907
107.89	60077
107.99	60867
108.09	62225
108.19	62369
108.29	62765
108.39	62794
108.49	62029
108.59	60923
108.69	60165
108.79	59417
108.89	57130
108.99	55612
109.09	54037
109.19	52328
109.29	50454
109.39	49441
109.49	47596
109.59	46421
109.69	45064
109.79	43760
109.89	42585
109.99	42281
110.09	40977
110.19	40490
110.29	39372
110.39	39063
110.49	39036
110.59	38583
110.69	38170
110.79	37807
110.89	37638
110.99	37199
111.09	38134
111.19	37538
111.29	37251
111.39	37188
111.49	37489
111.59	37419
111.69	36855
111.79	37264
111.89	37171
111.99	36813
112.09	37086
112.19	37128
112.29	37213
112.39	36999
112.49	37070
112.59	37001
112.69	36880
112.79	36820
112.89	37045
112.99	37082
113.09	36907
113.19	36926
113.29	37214
113.39	37348
113.49	36867
113.59	37150
113.69	37005
113.79	36732
113.89	37154
113.99	36884
114.09	37240
114.19	36902
114.29	36563
114.39	36494
114.49	36126
114.59	36654
114.69	36633
114.79	36420
114.89	36303
114.99	36329
115.09	36437
115.19	36342
115.29	35881
115.39	35952
115.49	35950
115.59	36335
115.69	36256
115.79	36122
115.89	35780
115.99	36203
116.09	36185
116.19	36611
116.29	36320
116.39	36019
116.49	35763
116.59	35959
116.69	36133
116.79	35879
116.89	36057
116.99	36047
117.09	36282
117.19	36212
117.29	36250
117.39	36012
117.49	36140
117.59	36308
117.69	36399
117.79	35992
117.89	35999
117.99	35909
118.09	36264
118.19	36498
118.29	36107
118.39	36370
118.49	36477
118.59	35910
118.69	36705
118.79	36317
118.89	36597
118.99	36377
119.09	36336
119.19	36258
119.29	36464
119.39	36513
119.49	37108
119.59	37278
119.69	37212
119.79	36582
119.89	37283
119.99	37591
120.09	37951
120.19	37523
120.29	37784
120.39	38018
120.49	38454
120.59	38487
120.69	38826
120.79	39115
120.89	39856
120.99	40681
121.09	41152
121.19	41545
121.29	42842
121.39	43886
121.49	44827
121.59	46430
121.69	47929
121.79	49969
121.89	52227
121.99	53713
122.09	56130
122.19	58425
122.29	61245
122.39	63531
122.49	66420
122.59	69604
122.69	72445
122.79	75732
122.89	78090
122.99	81544
123.09	84200
123.19	87495
123.29	90355
123.39	92947
123.49	94779
123.59	96320
123.69	98208
123.79	99043
123.89	99992
123.99	99166
124.09	99067
124.19	97937
124.29	96458
124.39	94708
124.49	93306
124.59	90322
124.69	87031
124.79	83262
124.89	80840
124.99	78363
125.09	75471
125.19	72576
125.29	69574
125.39	66639
125.49	63681
125.59	60765
125.69	58201
125.79	55947
125.89	53571
125.99	51909
126.09	50032
126.19	48618
126.29	47052
126.39	45576
126.49	44608
126.59	43615
126.69	43020
126.79	41760
126.89	41264
126.99	40941
127.09	40059
127.19	39746
127.29	38973
127.39	38333
127.49	38485
127.59	37838
127.69	37816
127.79	37496
127.89	37401
127.99	37123
128.09	37066
128.19	36923
128.29	36765
128.39	36646
128.49	36503