File: module_examples/HW/HW3/xrd_csv_files/co3o4_xrd_co_source.txt
x	y_obs
16	1163
16.068	1103
16.136	1070
16.204	1114
16.272	1070
16.34	1097
16.408	1092
16.476	1083
16.544	1087
16.612	1074
16.68	1116
16.748	1074
16.816	1097
16.884	1119
16.952	1123
17.02	1114
17.088	1125
17.156	1070
17.224	1111
17.292	1069
17.36	1099
17.428	1090
17.496	1131
17.564	1081
17.632	1061
17.7	1148
17.768	1106
17.836	1103
17.904	1151
17.972	1035
18.04	1058
18.108	1101
18.176	1089
18.244	1142
18.312	1117
18.38	1077
18.448	1077
18.516	1065
18.584	1111
18.652	1093
18.72	1063
18.788	1097
18.856	1123
18.924	1071
18.992	1124
19.06	1161
19.128	1020
19.196	1122
19.264	1069
19.332	1120
19.4	1110
19.468	1090
19.536	1153
19.604	1109
19.672	1140
19.74	1133
19.808	1197
19.876	1267
19.944	1577
20.012	1565
20.08	1238
20.148	1161
20.216	1189
20.284	1106
20.352	1115
20.42	1174
20.488	1133
20.556	1096
20.624	1120
20.692	1184
20.76	1143
20.828	1127
20.896	1119
20.964	1195
21.032	1142
21.1	1193
21.168	1138
21.236	1174
21.304	1191
21.372	1125
21.44	1119
21.508	1152
21.576	1148
21.644	1211
21.712	1151
21.78	1211
21.848	1268
21.916	1276
21.984	1499
22.052	2353
22.12	2380
22.188	1561
22.256	1243
22.324	1223
22.392	1194
22.46	1166
22.528	1117
22.596	1250
22.664	1227
22.732	1095
22.8	1152
22.868	1109
22.936	1185
23.004	1123
23.072	1195
23.14	1136
23.208	1160
23.276	1238
23.344	1210
23.412	1153
23.48	1159
23.548	1140
23.616	1148
23.684	1162
23.752	1171
23.82	1116
23.888	1169
23.956	1166
24.024	1168
24.092	1136
24.16	1189
24.228	1124
24.296	1227
24.364	1151
24.432	1159
24.5	1190
24.568	1163
24.636	1140
24.704	1173
24.772	1184
24.84	1159
24.908	1143
24.976	1162
25.044	1143
25.112	1151
25.18	1159
25.248	1180
25.316	1166
25.384	1143
25.452	1107
25.52	1177
25.588	1144
25.656	1096
25.724	1165
25.792	1198
25.86	1165
25.928	1150
25.996	1209
26.064	1158
26.132	1136
26.2	1158
26.268	1130
26.336	1164
26.404	1173
26.472	1148
26.54	1146
26.608	1098
26.676	1155
26.744	1178
26.812	1102
26.88	1097
26.948	1153
27.016	1167
27.084	1183
27.152	1158
27.22	1130
27.288	1185
27.356	1131
27.424	1173
27.492	1161
27.56	1167
27.628	1101
27.696	1141
27.764	1141
27.832	1134
27.9	1129
27.968	1200
28.036	1170
28.104	1146
28.172	1103
28.24	1117
28.308	1143
28.376	1143
28.444	1143
28.512	1119
28.58	1156
28.648	1138
28.716	1098
28.784	1188
28.852	1104
28.92	1197
28.988	1172
29.056	1143
29.124	1129
29.192	1157
29.26	1134
29.328	1163
29.396	1110
29.464	1186
29.532	1164
29.6	1161
29.668	1103
29.736	1164
29.804	1115
29.872	1150
29.94	1128
30.008	1102
30.076	1148
30.144	1148
30.212	1178
30.28	1204
30.348	1132
30.416	1142
30.484	1153
30.552	1135
30.62	1157
30.688	1158
30.756	1164
30.824	1139
30.892	1115
30.96	1174
31.028	1185
31.096	1198
31.164	1111
31.232	1140
31.3	1096
31.368	1162
31.436	1150
31.504	1145
31.572	1138
31.64	1170
31.708	1180
31.776	1147
31.844	1142
31.912	1128
31.98	1167
32.048	1168
32.116	1183
32.184	1167
32.252	1166
32.32	1103
32.388	1141
32.456	1167
32.524	1176
32.592	1205
32.66	1213
32.728	1269
32.796	1423
32.864	1911
32.932	2331
33	1702
33.068	1373
33.136	1269
33.204	1220
33.272	1164
33.34	1215
33.408	1248
33.476	1194
33.544	1148
33.612	1206
33.68	1158
33.748	1202
33.816	1218
33.884	1113
33.952	1187
34.02	1154
34.088	1154
34.156	1175
34.224	1189
34.292	1169
34.36	1147
34.428	1166
34.496	1176
34.564	1183
34.632	1162
34.7	1114
34.768	1157
34.836	1148
34.904	1060
34.972	1138
35.04	1135
35.108	1127
35.176	1136
35.244	1168
35.312	1184
35.38	1098
35.448	1092
35.516	1167
35.584	1162
35.652	1079
35.72	1177
35.788	1106
35.856	1199
35.924	1193
35.992	1186
36.06	1177
36.128	1213
36.196	1279
36.264	1443
36.332	1844
36.4	2864
36.468	3738
36.536	2991
36.604	1982
36.672	1443
36.74	1273
36.808	1209
36.876	1165
36.944	1142
37.012	1175
37.08	1159
37.148	1122
37.216	1081
37.284	1146
37.352	1118
37.42	1083
37.488	1157
37.556	1149
37.624	1113
37.692	1100
37.76	1150
37.828	1101
37.896	1195
37.964	1099
38.032	1164
38.1	1139
38.168	1204
38.236	1275
38.304	1409
38.372	2017
38.44	2713
38.508	1978
38.576	1566
38.644	1781
38.712	2484
38.78	3660
38.848	3787
38.916	2509
38.984	1774
39.052	1493
39.12	1329
39.188	1233
39.256	1307
39.324	1226
39.392	1258
39.46	1187
39.528	1239
39.596	1224
39.664	1208
39.732	1227
39.8	1211
39.868	1227
39.936	1170
40.004	1196
40.072	1215
40.14	1185
40.208	1197
40.276	1118
40.344	1192
40.412	1176
40.48	1151
40.548	1260
40.616	1307
40.684	1256
40.752	1202
40.82	1194
40.888	1185
40.956	1183
41.024	1173
41.092	1154
41.16	1192
41.228	1164
41.296	1142
41.364	1169
41.432	1118
41.5	1135
41.568	1157
41.636	1190
41.704	1194
41.772	1182
41.84	1222
41.908	1177
41.976	1175
42.044	1218
42.112	1200
42.18	1242
42.248	1229
42.316	1382
42.384	1464
42.452	1810
42.52	2726
42.588	4511
42.656	4706
42.724	3419
42.792	2461
42.86	2750
42.928	4245
42.996	6930
43.064	7926
43.132	6153
43.2	3823
43.268	2348
43.336	1700
43.404	1403
43.472	1301
43.54	1221
43.608	1208
43.676	1177
43.744	1171
43.812	1196
43.88	1145
43.948	1192
44.016	1148
44.084	1140
44.152	1204
44.22	1213
44.288	1239
44.356	1313
44.424	1382
44.492	1606
44.56	2098
44.628	3524
44.696	3234
44.764	2046
44.832	1553
44.9	1456
44.968	1499
45.036	1729
45.104	1751
45.172	1501
45.24	1328
45.308	1244
45.376	1218
45.444	1161
45.512	1087
45.58	1149
45.648	1163
45.716	1185
45.784	1125
45.852	1212
45.92	1108
45.988	1111
46.056	1152
46.124	1155
46.192	1125
46.26	1171
46.328	1126
46.396	1128
46.464	1096
46.532	1197
46.6	1145
46.668	1130
46.736	1178
46.804	1166
46.872	1180
46.94	1162
47.008	1243
47.076	1277
47.144	1446
47.212	1621
47.28	1683
47.348	1485
47.416	1379
47.484	1311
47.552	1228
47.62	1212
47.688	1122
47.756	1113
47.824	1119
47.892	1118
47.96	1085
48.028	1121
48.096	1116
48.164	1139
48.232	1118
48.3	1143
48.368	1064
48.436	1198
48.504	1115
48.572	1108
48.64	1135
48.708	1192
48.776	1114
48.844	1181
48.912	1142
48.98	1185
49.048	1182
49.116	1230
49.184	1261
49.252	1393
49.32	1575
49.388	1763
49.456	2453
49.524	4233
49.592	6134
49.66	4746
49.728	3650
49.796	2115
49.864	1505
49.932	1353
50	1281
50.068	1167
50.136	1218
50.204	1144
50.272	1178
50.34	1162
50.408	1097
50.476	1160
50.544	1087
50.612	1171
50.68	1095
50.748	1123
50.816	1125
50.884	1105
50.952	1098
51.02	1147
51.088	1062
51.156	1098
51.224	1090
51.292	1087
51.36	1087
51.428	1189
51.496	1082
51.564	1110
51.632	1095
51.7	1072
51.768	1078
51.836	1103
51.904	1125
51.972	1172
52.04	1097
52.108	1164
52.176	1211
52.244	1275
52.312	1397
52.38	1609
52.448	1954
52.516	2254
52.584	2138
52.652	1895
52.72	1577
52.788	1350
52.856	1228
52.924	1197
52.992	1161
53.06	1139
53.128	1126
53.196	1107
53.264	1065
53.332	1104
53.4	1120
53.468	1150
53.536	1125
53.604	1091
53.672	1104
53.74	1163
53.808	1117
53.876	1148
53.944	1082
54.012	1130
54.08	1095
54.148	1122
54.216	1085
54.284	1131
54.352	1095
54.42	1123
54.488	1096
54.556	1143
54.624	1119
54.692	1158
54.76	1157
54.828	1111
54.896	1109
54.964	1185
55.032	1150
55.1	1153
55.168	1109
55.236	1125
55.304	1147
55.372	1100
55.44	1076
55.508	1072
55.576	1135
55.644	1049
55.712	1072
55.78	1128
55.848	1125
55.916	1097
55.984	1115
56.052	1118
56.12	1073
56.188	1059
56.256	1080
56.324	1131
56.392	1064
56.46	1131
56.528	1137
56.596	1103
56.664	1069
56.732	1052
56.8	1098
56.868	1110
56.936	1060
57.004	1064
57.072	1099
57.14	1148
57.208	1057
57.276	1153
57.344	1074
57.412	1070
57.48	1113
57.548	1095
57.616	1087
57.684	1076
57.752	1078
57.82	1091
57.888	1109
57.956	1098
58.024	1105
58.092	1068
58.16	1101
58.228	1073
58.296	1095
58.364	1089
58.432	1057
58.5	1111
58.568	1111
58.636	1132
58.704	1162
58.772	1283
58.84	1277
58.908	1202
58.976	1114
59.044	1084
59.112	1133
59.18	1122
59.248	1031
59.316	1116
59.384	1061
59.452	1113
59.52	1076
59.588	1053
59.656	1069
59.724	1068
59.792	1072
59.86	1086
59.928	1071
59.996	1045
60.064	1056
60.132	1038
60.2	1047
60.268	1061
60.336	1102
60.404	1084
60.472	1073
60.54	1071
60.608	1094
60.676	1050
60.744	1082
60.812	1072
60.88	1028
60.948	1035
61.016	1050
61.084	1092
61.152	1179
61.22	1060
61.288	1073
61.356	1090
61.424	1098
61.492	1084
61.56	1091
61.628	1039
61.696	1106
61.764	1103
61.832	1105
61.9	1112
61.968	1089
62.036	1068
62.104	1069
62.172	1067
62.24	1112
62.308	1074
62.376	1167
62.444	1120
62.512	1256
62.58	1265
62.648	1421
62.716	1648
62.784	1678
62.852	1555
62.92	1448
62.988	1328
63.056	1241
63.124	1194
63.192	1143
63.26	1128
63.328	1144
63.396	1152
63.464	1107
63.532	1167
63.6	1090
63.668	1125
63.736	1116
63.804	1044
63.872	1123
63.94	1061
64.008	1077
64.076	1083
64.144	1113
64.212	1113
64.28	1089
64.348	1170
64.416	1089
64.484	1139
64.552	1138
64.62	1088
64.688	1123
64.756	1177
64.824	1267
64.892	1392
64.96	1663
65.028	1952
65.096	1816
65.164	1498
65.232	1279
65.3	1234
65.368	1194
65.436	1199
65.504	1262
65.572	1450
65.64	1514
65.708	1503
65.776	1451
65.844	1290
65.912	1216
65.98	1186
66.048	1109
66.116	1107
66.184	1100
66.252	1178
66.32	1138
66.388	1095
66.456	1099
66.524	1101
66.592	1089
66.66	1117
66.728	1086
66.796	1063
66.864	1089
66.932	1093
67	1119
67.068	1082
67.136	1094
67.204	1073
67.272	1058
67.34	1099
67.408	1060
67.476	1162
67.544	1105
67.612	1105
67.68	1060
67.748	1078
67.816	1086
67.884	1137
67.952	1139
68.02	1122
68.088	1119
68.156	1143
68.224	1094
68.292	1078
68.36	1087
68.428	1080
68.496	1115
68.564	1139
68.632	1138
68.7	1136
68.768	1194
68.836	1228
68.904	1349
68.972	1618
69.04	1798
69.108	1817
69.176	1726
69.244	1489
69.312	1318
69.38	1278
69.448	1241
69.516	1159
69.584	1225
69.652	1217
69.72	1210
69.788	1303
69.856	1299
69.924	1490
69.992	1690
70.06	2087
70.128	2351
70.196	2586
70.264	2383
70.332	2233
70.4	1856
70.468	1605
70.536	1434
70.604	1329
70.672	1199
70.74	1200
70.808	1173
70.876	1119
70.944	1129
71.012	1170
71.08	1115
71.148	1105
71.216	1095
71.284	1043
71.352	1071
71.42	1096
71.488	1108
71.556	1089
71.624	1131
71.692	1100
71.76	1082
71.828	1090
71.896	1091
71.964	1105
72.032	1128
72.1	1001
72.168	1061
72.236	1124
72.304	1177
72.372	1145
72.44	1210
72.508	1250
72.576	1438
72.644	1772
72.712	2423
72.78	3001
72.848	2746
72.916	2507
72.984	2120
73.052	1782
73.12	1382
73.188	1239
73.256	1190
73.324	1124
73.392	1106
73.46	1133
73.528	1116
73.596	1092
73.664	1107
73.732	1094
73.8	1079
73.868	1169
73.936	1081
74.004	1003
74.072	1088
74.14	1129
74.208	1094
74.276	1054
74.344	1104
74.412	1076
74.48	1088
74.548	1100
74.616	1099
74.684	1069
74.752	1044
74.82	1106
74.888	1099
74.956	1078
75.024	1082
75.092	1098
75.16	1059
75.228	1055
75.296	1075
75.364	1102
75.432	1095
75.5	1061
75.568	1067
75.636	1053
75.704	1099
75.772	1038
75.84	1121
75.908	1127
75.976	1040
76.044	1066
76.112	1038
76.18	1032
76.248	1091
76.316	1096
76.384	1078
76.452	1076
76.52	1059
76.588	1094
76.656	1093
76.724	1082
76.792	1085
76.86	1124
76.928	1198
76.996	1177
77.064	1211
77.132	1192
77.2	1382
77.268	1495
77.336	1881
77.404	2372
77.472	2714
77.54	2677
77.608	2496
77.676	2261
77.744	1925
77.812	1581
77.88	1419
77.948	1281
78.016	1305
78.084	1318
78.152	1306
78.22	1295
78.288	1240
78.356	1173
78.424	1142
78.492	1111
78.56	1091
78.628	1121
78.696	1117
78.764	1101
78.832	1100
78.9	1109
78.968	1076
79.036	1092
79.104	1097
79.172	1086
79.24	1108
79.308	1040
79.376	1066
79.444	1070
79.512	1078
79.58	1061
79.648	1073
79.716	1030
79.784	1080
79.852	1076
79.92	1055
79.988	1061
80.056	1109
80.124	1077
80.192	1085
80.26	1083
80.328	1059
80.396	1069
80.464	1046
80.532	1058
80.6	1041
80.668	1069
80.736	1088
80.804	1052
80.872	1151
80.94	1031
81.008	1037
81.076	1072
81.144	1049
81.212	1093
81.28	1064
81.348	1043
81.416	1081
81.484	1108
81.552	1081
81.62	1089
81.688	1135
81.756	1123
81.824	1159
81.892	1155
81.96	1162
82.028	1173
82.096	1162
82.164	1211
82.232	1257
82.3	1332
82.368	1345
82.436	1311
82.504	1242
82.572	1152
82.64	1186
82.708	1081
82.776	1126
82.844	1108
82.912	1086
82.98	1084
83.048	1136
83.116	1091
83.184	1115
83.252	1111
83.32	1086
83.388	1163
83.456	1122
83.524	1123
83.592	1084
83.66	1015
83.728	1131
83.796	1116
83.864	1079
83.932	1050
84	1052
84.068	1063
84.136	1076
84.204	1110
84.272	1075
84.34	1076
84.408	1053
84.476	1041
84.544	1055
84.612	1075
84.68	1072
84.748	1090
84.816	1046
84.884	1083
84.952	1100
85.02	1082
85.088	1074
85.156	1043
85.224	1074
85.292	1049
85.36	1074
85.428	1089
85.496	1075
85.564	1052
85.632	1027
85.7	1078
85.768	1079
85.836	1068
85.904	1034
85.972	1044
86.04	984
86.108	1068
86.176	1052
86.244	1034
86.312	1071
86.38	1082
86.448	1088
86.516	1069
86.584	1015
86.652	1108
86.72	1095
86.788	1080
86.856	1050
86.924	1003
86.992	1055
87.06	1088
87.128	1043
87.196	1120
87.264	1081
87.332	1070
87.4	1077
87.468	1121
87.536	1034
87.604	1119
87.672	1084
87.74	1130
87.808	1163
87.876	1169
87.944	1265
88.012	1354
88.08	1591
88.148	1642
88.216	1712
88.284	1557
88.352	1522
88.42	1478
88.488	1357
88.556	1269
88.624	1238
88.692	1191
88.76	1247
88.828	1190
88.896	1156
88.964	1115
89.032	1152
89.1	1125
89.168	1133
89.236	1106
89.304	1044
89.372	1073
89.44	1038
89.508	1045
89.576	1075
89.644	1085
89.712	1125
89.78	1077
89.848	1105
89.916	1044
89.984	1075
90.052	1049
90.12	1089
90.188	1059
90.256	1027
90.324	1094
90.392	1063
90.46	1066
90.528	1116
90.596	1033
90.664	1048
90.732	1025
90.8	1068
90.868	1115
90.936	1038
91.004	1100
91.072	1088
91.14	1061
91.208	1117
91.276	1067
91.344	1084
91.412	1044
91.48	1069
91.548	1049
91.616	1092
91.684	1043
91.752	1077
91.82	1042
91.888	1067
91.956	1054
92.024	1077
92.092	1036
92.16	1098
92.228	1094
92.296	1114
92.364	1054
92.432	1083
92.5	1129
92.568	1156
92.636	1126
92.704	1190
92.772	1181
92.84	1267
92.908	1415
92.976	1473
93.044	1509
93.112	1580
93.18	1701
93.248	1785
93.316	1666
93.384	1562
93.452	1433
93.52	1426
93.588	1334
93.656	1223
93.724	1138
93.792	1103
93.86	1107
93.928	1096
93.996	1152
94.064	1151
94.132	1110
94.2	1132
94.268	1167
94.336	1190
94.404	1228
94.472	1240
94.54	1189
94.608	1160
94.676	1157
94.744	1175
94.812	1136
94.88	1140
94.948	1071
95.016	1083
95.084	1073
95.152	1096
95.22	1063
95.288	1084
95.356	1065
95.424	1084
95.492	1040
95.56	1033
95.628	1087
95.696	1061
95.764	1046
95.832	1068
95.9	1028
95.968	1106
96.036	1042
96.104	1065
96.172	1062
96.24	1069
96.308	1070
96.376	1097
96.444	1045
96.512	1021
96.58	1063
96.648	1016
96.716	1006
96.784	1112
96.852	1055
96.92	1092
96.988	1063
97.056	1019
97.124	1108
97.192	1114
97.26	1075
97.328	1093
97.396	1120
97.464	1125
97.532	1114
97.6	1101
97.668	1030
97.736	1059
97.804	1086
97.872	1074
97.94	1059
98.008	1052
98.076	1067
98.144	1059
98.212	1033
98.28	1119
98.348	1061
98.416	1054
98.484	1036
98.552	1061
98.62	1075
98.688	1100
98.756	1072
98.824	1088
98.892	1108
98.96	1120
99.028	1142
99.096	1157
99.164	1099
99.232	1088
99.3	1117
99.368	1131
99.436	1100
99.504	1086
99.572	1058
99.64	1019
99.708	1071
99.776	1139
99.844	1087
99.912	1080
99.963	1193