File: module_examples/HW/HW3/xrd_csv_files/xray_with_background.txt
x	y_obs	y_bkg
16	1163	1154.555
16.068	1103	1154.479
16.136	1070	1154.403
16.204	1114	1154.327
16.272	1070	1154.251
16.34	1097	1154.175
16.408	1092	1154.1
16.476	1083	1154.025
16.544	1087	1153.95
16.612	1074	1153.875
16.68	1116	1153.801
16.748	1074	1153.727
16.816	1097	1153.653
16.884	1119	1153.579
16.952	1123	1153.506
17.02	1114	1153.433
17.088	1125	1153.361
17.156	1070	1153.29
17.224	1111	1153.218
17.292	1069	1153.148
17.36	1099	1153.078
17.428	1090	1153.009
17.496	1131	1152.94
17.564	1081	1152.873
17.632	1061	1152.806
17.7	1148	1152.741
17.768	1106	1152.677
17.836	1103	1152.614
17.904	1151	1152.553
17.972	1035	1152.494
18.04	1058	1152.436
18.108	1101	1152.382
18.176	1089	1152.33
18.244	1142	1152.281
18.312	1117	1152.236
18.38	1077	1152.195
18.448	1077	1152.16
18.516	1065	1152.131
18.584	1111	1152.109
18.652	1093	1152.097
18.72	1063	1152.095
18.788	1097	1152.107
18.856	1123	1152.136
18.924	1071	1152.186
18.992	1124	1152.265
19.06	1161	1152.379
19.128	1020	1152.542
19.196	1122	1152.771
19.264	1069	1153.092
19.332	1120	1153.546
19.4	1110	1154.199
19.468	1090	1155.164
19.536	1153	1156.648
19.604	1109	1159.056
19.672	1140	1163.286
19.74	1133	1171.645
19.808	1197	1191.53
19.876	1267	1256.863
19.944	1577	1592.862
20.012	1565	1505.683
20.08	1238	1240.385
20.148	1161	1186.844
20.216	1189	1169.432
20.284	1106	1161.777
20.352	1115	1157.746
20.42	1174	1155.355
20.488	1133	1153.808
20.556	1096	1152.741
20.624	1120	1151.965
20.692	1184	1151.377
20.76	1143	1150.915
20.828	1127	1150.54
20.896	1119	1150.228
20.964	1195	1149.962
21.032	1142	1149.731
21.1	1193	1149.527
21.168	1138	1149.344
21.236	1174	1149.177
21.304	1191	1149.023
21.372	1125	1148.88
21.44	1119	1148.746
21.508	1152	1148.619
21.576	1148	1148.498
21.644	1211	1148.382
21.712	1151	1148.27
21.78	1211	1148.163
21.848	1268	1148.058
21.916	1276	1147.956
21.984	1499	1147.856
22.052	2353	1147.759
22.12	2380	1147.663
22.188	1561	1147.569
22.256	1243	1147.476
22.324	1223	1147.385
22.392	1194	1147.294
22.46	1166	1147.205
22.528	1117	1147.116
22.596	1250	1147.028
22.664	1227	1146.941
22.732	1095	1146.855
22.8	1152	1146.769
22.868	1109	1146.684
22.936	1185	1146.599
23.004	1123	1146.515
23.072	1195	1146.431
23.14	1136	1146.347
23.208	1160	1146.264
23.276	1238	1146.181
23.344	1210	1146.098
23.412	1153	1146.016
23.48	1159	1145.934
23.548	1140	1145.852
23.616	1148	1145.77
23.684	1162	1145.689
23.752	1171	1145.607
23.82	1116	1145.526
23.888	1169	1145.445
23.956	1166	1145.365
24.024	1168	1145.284
24.092	1136	1145.203
24.16	1189	1145.123
24.228	1124	1145.043
24.296	1227	1144.962
24.364	1151	1144.882
24.432	1159	1144.802
24.5	1190	1144.722
24.568	1163	1144.642
24.636	1140	1144.563
24.704	1173	1144.483
24.772	1184	1144.403
24.84	1159	1144.324
24.908	1143	1144.245
24.976	1162	1144.165
25.044	1143	1144.192
25.112	1151	1144.115
25.18	1159	1144.037
25.248	1180	1143.96
25.316	1166	1143.883
25.384	1143	1143.806
25.452	1107	1143.729
25.52	1177	1143.652
25.588	1144	1143.576
25.656	1096	1143.499
25.724	1165	1143.422
25.792	1198	1143.346
25.86	1165	1143.27
25.928	1150	1143.194
25.996	1209	1143.118
26.064	1158	1143.042
26.132	1136	1142.966
26.2	1158	1142.89
26.268	1130	1142.814
26.336	1164	1142.739
26.404	1173	1142.664
26.472	1148	1142.588
26.54	1146	1142.513
26.608	1098	1142.438
26.676	1155	1142.364
26.744	1178	1142.289
26.812	1102	1142.214
26.88	1097	1142.14
26.948	1153	1142.066
27.016	1167	1141.992
27.084	1183	1141.894
27.152	1158	1141.821
27.22	1130	1141.748
27.288	1185	1141.675
27.356	1131	1141.602
27.424	1173	1141.529
27.492	1161	1141.457
27.56	1167	1141.385
27.628	1101	1141.313
27.696	1141	1141.242
27.764	1141	1141.17
27.832	1134	1141.099
27.9	1129	1141.028
27.968	1200	1140.958
28.036	1170	1140.887
28.104	1146	1140.818
28.172	1103	1140.748
28.24	1117	1140.939
28.308	1143	1140.874
28.376	1143	1140.809
28.444	1143	1140.745
28.512	1119	1140.681
28.58	1156	1140.617
28.648	1138	1140.555
28.716	1098	1140.493
28.784	1188	1140.431
28.852	1104	1140.37
28.92	1197	1140.31
28.988	1172	1140.251
29.056	1143	1140.193
29.124	1129	1140.135
29.192	1157	1140.079
29.26	1134	1140.024
29.328	1163	1139.969
29.396	1110	1139.916
29.464	1186	1139.864
29.532	1164	1139.814
29.6	1161	1139.765
29.668	1103	1139.718
29.736	1164	1139.672
29.804	1115	1139.629
29.872	1150	1139.587
29.94	1128	1139.548
30.008	1102	1139.511
30.076	1148	1139.477
30.144	1148	1139.445
30.212	1178	1139.417
30.28	1204	1139.393
30.348	1132	1139.372
30.416	1142	1139.356
30.484	1153	1139.344
30.552	1135	1139.338
30.62	1157	1139.338
30.688	1158	1139.344
30.756	1164	1139.358
30.824	1139	1139.381
30.892	1115	1139.413
30.96	1174	1139.456
31.028	1185	1139.511
31.096	1198	1139.581
31.164	1111	1139.668
31.232	1140	1139.773
31.3	1096	1139.902
31.368	1162	1140.056
31.436	1150	1140.243
31.504	1145	1140.466
31.572	1138	1140.735
31.64	1170	1141.059
31.708	1180	1141.45
31.776	1147	1141.925
31.844	1142	1142.506
31.912	1128	1143.22
31.98	1167	1144.108
32.048	1168	1145.225
32.116	1183	1146.65
32.184	1167	1148.501
32.252	1166	1150.953
32.32	1103	1154.287
32.388	1141	1158.965
32.456	1167	1165.794
32.524	1176	1176.28
32.592	1205	1193.494
32.66	1213	1224.422
32.728	1269	1287.487
32.796	1423	1440.52
32.864	1911	1864.535
32.932	2331	2291.612
33	1702	1705.213
33.068	1373	1382.413
33.136	1269	1264.597
33.204	1220	1213.394
33.272	1164	1187.223
33.34	1215	1172.2
33.408	1248	1162.817
33.476	1194	1156.575
33.544	1148	1152.213
33.612	1206	1149.044
33.68	1158	1146.668
33.748	1202	1144.837
33.816	1218	1143.395
33.884	1113	1142.238
33.952	1187	1141.294
34.02	1154	1140.512
34.088	1154	1139.857
34.156	1175	1139.302
34.224	1189	1138.827
34.292	1169	1138.417
34.36	1147	1138.061
34.428	1166	1137.749
34.496	1176	1137.475
34.564	1183	1137.233
34.632	1162	1137.019
34.7	1114	1136.829
34.768	1157	1136.66
34.836	1148	1136.509
34.904	1060	1136.375
34.972	1138	1136.257
35.04	1135	1136.207
35.108	1127	1136.116
35.176	1136	1136.127
35.244	1168	1136.064
35.312	1184	1136.013
35.38	1098	1135.972
35.448	1092	1135.944
35.516	1167	1135.926
35.584	1162	1135.919
35.652	1079	1135.924
35.72	1177	1135.941
35.788	1106	1135.97
35.856	1199	1136.012
35.924	1193	1136.067
35.992	1186	1136.137
36.06	1177	1136.222
36.128	1213	1136.325
36.196	1279	1136.445
36.264	1443	1136.585
36.332	1844	1136.747
36.4	2864	1136.933
36.468	3738	1137.145
36.536	2991	1137.386
36.604	1982	1137.661
36.672	1443	1137.973
36.74	1273	1138.326
36.808	1209	1138.727
36.876	1165	1139.182
36.944	1142	1139.943
37.012	1175	1140.536
37.08	1159	1141.213
37.148	1122	1141.986
37.216	1081	1142.874
37.284	1146	1143.897
37.352	1118	1145.081
37.42	1083	1146.459
37.488	1157	1148.074
37.556	1149	1149.98
37.624	1113	1152.247
37.692	1100	1154.971
37.76	1150	1158.281
37.828	1101	1162.358
37.896	1195	1167.462
37.964	1099	1173.984
38.032	1164	1182.541
38.1	1139	1194.192
38.168	1204	1210.973
38.236	1275	1237.661
38.304	1409	1290.104
38.372	2017	1471.351
38.44	2713	2403.271
38.508	1978	1558.412
38.576	1566	1607.95
38.644	1781	1890.531
38.712	2484	2541.412
38.78	3660	3666.164
38.848	3787	3677.746
38.916	2509	2546.118
38.984	1774	1878.34
39.052	1493	1567.955
39.12	1329	1411.881
39.188	1233	1324.868
39.256	1307	1272.038
39.324	1226	1237.757
39.392	1258	1214.323
39.46	1187	1197.621
39.528	1239	1185.307
39.596	1224	1175.971
39.664	1208	1168.725
39.732	1227	1162.986
39.8	1211	1158.363
39.868	1227	1154.582
39.936	1170	1151.448
40.004	1196	1148.821
40.072	1215	1146.596
40.14	1185	1144.694
40.208	1197	1143.054
40.276	1118	1141.629
40.344	1192	1140.382
40.412	1176	1139.285
40.48	1151	1138.314
40.548	1260	1137.45
40.616	1307	1136.678
40.684	1256	1135.985
40.752	1202	1135.36
40.82	1194	1134.795
40.888	1185	1134.282
40.956	1183	1133.816
41.024	1173	1133.391
41.092	1154	1133.003
41.16	1192	1132.648
41.228	1164	1132.323
41.296	1142	1132.025
41.364	1169	1131.753
41.432	1118	1131.503
41.5	1135	1131.275
41.568	1157	1131.066
41.636	1190	1130.877
41.704	1194	1130.706
41.772	1182	1130.552
41.84	1222	1130.415
41.908	1177	1130.295
41.976	1175	1130.191
42.044	1218	1130.103
42.112	1200	1130.032
42.18	1242	1129.977
42.248	1229	1129.94
42.316	1382	1129.921
42.384	1464	1129.922
42.452	1810	1129.943
42.52	2726	1129.986
42.588	4511	1130.054
42.656	4706	1130.148
42.724	3419	1130.271
42.792	2461	1130.427
42.86	2750	1130.62
42.928	4245	1130.855
42.996	6930	1131.138
43.064	7926	1131.478
43.132	6153	1131.883
43.2	3823	1132.365
43.268	2348	1132.94
43.336	1700	1133.585
43.404	1403	1134.405
43.472	1301	1135.391
43.54	1221	1136.581
43.608	1208	1138.03
43.676	1177	1139.812
43.744	1171	1142.026
43.812	1196	1144.815
43.88	1145	1148.384
43.948	1192	1153.041
44.016	1148	1159.26
44.084	1140	1167.805
44.152	1204	1179.967
44.22	1213	1198.065
44.288	1239	1226.596
44.356	1313	1275.154
44.424	1382	1367.013
44.492	1606	1568.794
44.56	2098	2106.056
44.628	3524	3455.881
44.696	3234	3225.805
44.764	2046	1986.154
44.832	1553	1526.335
44.9	1456	1348.706
44.968	1499	1265.725
45.036	1729	1221.043
45.104	1751	1194.433
45.172	1501	1177.382
45.24	1328	1165.835
45.308	1244	1157.676
45.376	1218	1151.717
45.444	1161	1147.252
45.512	1087	1143.839
45.58	1149	1141.192
45.648	1163	1139.12
45.716	1185	1137.495
45.784	1125	1136.227
45.852	1212	1135.253
45.92	1108	1134.532
45.988	1111	1134.037
46.056	1152	1133.754
46.124	1155	1133.682
46.192	1125	1133.829
46.26	1171	1134.218
46.328	1126	1134.887
46.396	1128	1135.898
46.464	1096	1137.342
46.532	1197	1139.36
46.6	1145	1142.169
46.668	1130	1146.116
46.736	1178	1151.765
46.804	1166	1160.094
46.872	1180	1172.888
46.94	1162	1193.619
47.008	1243	1229.581
47.076	1277	1296.868
47.144	1446	1427.775
47.212	1621	1631.28
47.28	1683	1677.692
47.348	1485	1481.608
47.416	1379	1325.303
47.484	1311	1243.368
47.552	1228	1200.216
47.62	1212	1175.692
47.688	1122	1160.656
47.756	1113	1150.839
47.824	1119	1144.09
47.892	1118	1139.252
47.96	1085	1135.662
48.028	1121	1132.919
48.096	1116	1130.77
48.164	1139	1129.05
48.232	1118	1127.647
48.3	1143	1126.484
48.368	1064	1125.506
48.436	1198	1124.672
48.504	1115	1123.952
48.572	1108	1123.325
48.64	1135	1122.772
48.708	1192	1122.281
48.776	1114	1121.841
48.844	1181	1121.444
48.912	1142	1121.083
48.98	1185	1120.753
49.048	1182	1120.449
49.116	1230	1120.168
49.184	1261	1119.906
49.252	1393	1119.662
49.32	1575	1119.432
49.388	1763	1119.216
49.456	2453	1119.011
49.524	4233	1118.816
49.592	6134	1118.631
49.66	4746	1118.454
49.728	3650	1118.284
49.796	2115	1118.121
49.864	1505	1117.964
49.932	1353	1117.813
50	1281	1117.666
50.068	1167	1117.524
50.136	1218	1117.386
50.204	1144	1117.252
50.272	1178	1117.121
50.34	1162	1116.993
50.408	1097	1116.928
50.476	1160	1116.807
50.544	1087	1116.688
50.612	1171	1116.571
50.68	1095	1116.457
50.748	1123	1116.344
50.816	1125	1116.233
50.884	1105	1116.124
50.952	1098	1116.017
51.02	1147	1115.911
51.088	1062	1115.807
51.156	1098	1115.704
51.224	1090	1115.602
51.292	1087	1115.501
51.36	1087	1115.402
51.428	1189	1115.303
51.496	1082	1115.206
51.564	1110	1115.109
51.632	1095	1115.013
51.7	1072	1114.919
51.768	1078	1114.824
51.836	1103	1114.731
51.904	1125	1114.638
51.972	1172	1114.564
52.04	1097	1114.473
52.108	1164	1114.382
52.176	1211	1114.293
52.244	1275	1114.203
52.312	1397	1114.115
52.38	1609	1114.027
52.448	1954	1113.939
52.516	2254	1113.852
52.584	2138	1113.765
52.652	1895	1113.679
52.72	1577	1113.593
52.788	1350	1113.508
52.856	1228	1113.423
52.924	1197	1113.339
52.992	1161	1113.254
53.06	1139	1113.171
53.128	1126	1113.087
53.196	1107	1113.004
53.264	1065	1112.921
53.332	1104	1112.839
53.4	1120	1112.757
53.468	1150	1112.675
53.536	1125	1112.593
53.604	1091	1112.512
53.672	1104	1112.431
53.74	1163	1112.35
53.808	1117	1112.27
53.876	1148	1112.19
53.944	1082	1112.11
54.012	1130	1112.031
54.08	1095	1111.951
54.148	1122	1111.945
54.216	1085	1111.867
54.284	1131	1111.789
54.352	1095	1111.711
54.42	1123	1111.634
54.488	1096	1111.557
54.556	1143	1111.48
54.624	1119	1111.287
54.692	1158	1111.212
54.76	1157	1111.137
54.828	1111	1111.063
54.896	1109	1110.988
54.964	1185	1110.914
55.032	1150	1110.84
55.1	1153	1110.767
55.168	1109	1110.693
55.236	1125	1110.707
55.304	1147	1110.636
55.372	1100	1110.565
55.44	1076	1110.494
55.508	1072	1110.424
55.576	1135	1110.354
55.644	1049	1110.285
55.712	1072	1110.216
55.78	1128	1110.147
55.848	1125	1110.079
55.916	1097	1110.011
55.984	1115	1109.944
56.052	1118	1109.878
56.12	1073	1109.812
56.188	1059	1109.747
56.256	1080	1109.575
56.324	1131	1109.512
56.392	1064	1109.451
56.46	1131	1109.39
56.528	1137	1109.33
56.596	1103	1109.272
56.664	1069	1109.214
56.732	1052	1109.158
56.8	1098	1109.103
56.868	1110	1109.05
56.936	1060	1108.999
57.004	1064	1108.95
57.072	1099	1108.903
57.14	1148	1108.859
57.208	1057	1108.817
57.276	1153	1108.78
57.344	1074	1108.747
57.412	1070	1108.719
57.48	1113	1108.697
57.548	1095	1108.682
57.616	1087	1108.676
57.684	1076	1108.68
57.752	1078	1108.699
57.82	1091	1108.734
57.888	1109	1108.792
57.956	1098	1108.879
58.024	1105	1109.006
58.092	1068	1109.187
58.16	1101	1109.445
58.228	1073	1109.816
58.296	1095	1110.361
58.364	1089	1111.185
58.432	1057	1112.49
58.5	1111	1114.694
58.568	1111	1118.778
58.636	1132	1127.463
58.704	1162	1150.16
58.772	1283	1222.831
58.84	1277	1286.939
58.908	1202	1178.612
58.976	1114	1136.44
59.044	1084	1122.232
59.112	1133	1116.138
59.18	1122	1113.016
59.248	1031	1111.209
59.316	1116	1110.068
59.384	1061	1109.299
59.452	1113	1108.754
59.52	1076	1108.352
59.588	1053	1108.046
59.656	1069	1107.808
59.724	1068	1107.618
59.792	1072	1107.466
59.86	1086	1107.342
59.928	1071	1107.241
59.996	1045	1107.16
60.064	1056	1107.095
60.132	1038	1107.044
60.2	1047	1107.007
60.268	1061	1106.982
60.336	1102	1106.969
60.404	1084	1106.968
60.472	1073	1106.979
60.54	1071	1107.002
60.608	1094	1107.039
60.676	1050	1107.09
60.744	1082	1107.157
60.812	1072	1107.24
60.88	1028	1107.343
60.948	1035	1107.467
61.016	1050	1107.616
61.084	1092	1107.792
61.152	1179	1108.001
61.22	1060	1108.248
61.288	1073	1108.538
61.356	1090	1108.881
61.424	1098	1109.287
61.492	1084	1109.768
61.56	1091	1110.341
61.628	1039	1111.029
61.696	1106	1111.858
61.764	1103	1112.868
61.832	1105	1114.11
61.9	1112	1115.656
61.968	1089	1117.606
62.036	1068	1120.109
62.104	1069	1123.385
62.172	1067	1127.777
62.24	1112	1133.834
62.308	1074	1142.489
62.376	1167	1155.398
62.444	1120	1175.709
62.512	1256	1209.848
62.58	1265	1271.734
62.648	1421	1390.725
62.716	1648	1598.514
62.784	1678	1744.521
62.852	1555	1579.489
62.92	1448	1378.086
62.988	1328	1265.325
63.056	1241	1206.58
63.124	1194	1174.02
63.192	1143	1154.579
63.26	1128	1142.214
63.328	1144	1133.947
63.396	1152	1128.203
63.464	1107	1124.098
63.532	1167	1121.109
63.6	1090	1118.912
63.668	1125	1117.304
63.736	1116	1116.152
63.804	1044	1115.373
63.872	1123	1114.916
63.94	1061	1114.755
64.008	1077	1114.884
64.076	1083	1115.32
64.144	1113	1116.103
64.212	1113	1117.301
64.28	1089	1119.027
64.348	1170	1121.455
64.416	1089	1124.864
64.484	1139	1129.71
64.552	1138	1136.767
64.62	1088	1147.432
64.688	1123	1164.393
64.756	1177	1193.318
64.824	1267	1247.479
64.892	1392	1361.487
64.96	1663	1621.331
65.028	1952	2010.331
65.096	1816	1826.636
65.164	1498	1463.559
65.232	1279	1291.852
65.3	1234	1214.445
65.368	1194	1175.201
65.436	1199	1153.004
65.504	1262	1139.344
65.572	1450	1130.349
65.64	1514	1124.152
65.708	1503	1119.696
65.776	1451	1116.385
65.844	1290	1113.859
65.912	1216	1111.888
65.98	1186	1110.323
66.048	1109	1109.059
66.116	1107	1108.027
66.184	1100	1107.176
66.252	1178	1106.468
66.32	1138	1105.875
66.388	1095	1105.379
66.456	1099	1104.963
66.524	1101	1104.615
66.592	1089	1104.326
66.66	1117	1104.09
66.728	1086	1103.902
66.796	1063	1103.758
66.864	1089	1103.655
66.932	1093	1103.592
67	1119	1103.568
67.068	1082	1103.585
67.136	1094	1103.641
67.204	1073	1103.741
67.272	1058	1103.887
67.34	1099	1104.083
67.408	1060	1104.334
67.476	1162	1104.648
67.544	1105	1105.033
67.612	1105	1105.5
67.68	1060	1106.064
67.748	1078	1106.743
67.816	1086	1107.558
67.884	1137	1108.54
67.952	1139	1109.727
68.02	1122	1111.17
68.088	1119	1112.936
68.156	1143	1115.118
68.224	1094	1117.843
68.292	1078	1121.294
68.36	1087	1125.732
68.428	1080	1131.551
68.496	1115	1139.354
68.564	1139	1150.107
68.632	1138	1165.413
68.7	1136	1188.075
68.768	1194	1223.205
68.836	1228	1280.537
68.904	1349	1378.345
68.972	1618	1543.739
69.04	1798	1765.05
69.108	1817	1850.616
69.176	1726	1675.64
69.244	1489	1466.872
69.312	1318	1331.7
69.38	1278	1252.971
69.448	1241	1206.029
69.516	1159	1176.58
69.584	1225	1157.145
69.652	1217	1143.735
69.72	1210	1134.125
69.788	1303	1127.017
69.856	1299	1121.614
69.924	1490	1117.412
69.992	1690	1114.077
70.06	2087	1111.384
70.128	2351	1109.176
70.196	2586	1107.339
70.264	2383	1105.793
70.332	2233	1104.478
70.4	1856	1103.346
70.468	1605	1102.365
70.536	1434	1101.506
70.604	1329	1100.749
70.672	1199	1100.076
70.74	1200	1099.474
70.808	1173	1098.933
70.876	1119	1098.443
70.944	1129	1097.997
71.012	1170	1097.589
71.08	1115	1097.215
71.148	1105	1096.869
71.216	1095	1096.548
71.284	1043	1096.249
71.352	1071	1095.97
71.42	1096	1095.708
71.488	1108	1095.461
71.556	1089	1095.228
71.624	1131	1095.008
71.692	1100	1094.799
71.76	1082	1094.599
71.828	1090	1094.409
71.896	1091	1094.227
71.964	1105	1094.052
72.032	1128	1093.884
72.1	1001	1093.722
72.168	1061	1093.565
72.236	1124	1093.414
72.304	1177	1093.268
72.372	1145	1093.126
72.44	1210	1092.987
72.508	1250	1092.853
72.576	1438	1092.722
72.644	1772	1092.594
72.712	2423	1092.469
72.78	3001	1092.347
72.848	2746	1092.227
72.916	2507	1092.11
72.984	2120	1091.995
73.052	1782	1091.881
73.12	1382	1091.77
73.188	1239	1091.661
73.256	1190	1091.553
73.324	1124	1091.447
73.392	1106	1091.342
73.46	1133	1091.239
73.528	1116	1091.137
73.596	1092	1091.036
73.664	1107	1090.937
73.732	1094	1090.838
73.8	1079	1090.741
73.868	1169	1090.644
73.936	1081	1090.549
74.004	1003	1090.454
74.072	1088	1090.36
74.14	1129	1090.267
74.208	1094	1090.175
74.276	1054	1090.083
74.344	1104	1089.992
74.412	1076	1089.902
74.48	1088	1089.812
74.548	1100	1089.723
74.616	1099	1089.635
74.684	1069	1089.547
74.752	1044	1089.459
74.82	1106	1089.372
74.888	1099	1089.286
74.956	1078	1089.199
75.024	1082	1089.114
75.092	1098	1089.029
75.16	1059	1088.944
75.228	1055	1088.859
75.296	1075	1088.775
75.364	1102	1088.691
75.432	1095	1088.608
75.5	1061	1088.525
75.568	1067	1088.442
75.636	1053	1088.359
75.704	1099	1088.277
75.772	1038	1088.195
75.84	1121	1088.113
75.908	1127	1088.031
75.976	1040	1087.95
76.044	1066	1087.869
76.112	1038	1087.788
76.18	1032	1087.708
76.248	1091	1087.627
76.316	1096	1087.547
76.384	1078	1087.467
76.452	1076	1087.387
76.52	1059	1087.308
76.588	1094	1087.228
76.656	1093	1087.149
76.724	1082	1087.07
76.792	1085	1086.991
76.86	1124	1086.912
76.928	1198	1086.833
76.996	1177	1086.755
77.064	1211	1086.677
77.132	1192	1086.598
77.2	1382	1086.52
77.268	1495	1086.442
77.336	1881	1086.364
77.404	2372	1086.287
77.472	2714	1086.209
77.54	2677	1086.132
77.608	2496	1086.054
77.676	2261	1085.977
77.744	1925	1085.9
77.812	1581	1085.823
77.88	1419	1085.746
77.948	1281	1085.669
78.016	1305	1085.592
78.084	1318	1085.515
78.152	1306	1085.439
78.22	1295	1085.362
78.288	1240	1085.286
78.356	1173	1085.209
78.424	1142	1085.133
78.492	1111	1085.057
78.56	1091	1084.981
78.628	1121	1084.905
78.696	1117	1084.829
78.764	1101	1084.753
78.832	1100	1084.677
78.9	1109	1084.601
78.968	1076	1084.525
79.036	1092	1084.45
79.104	1097	1084.374
79.172	1086	1084.299
79.24	1108	1084.223
79.308	1040	1084.148
79.376	1066	1084.072
79.444	1070	1083.997
79.512	1078	1083.922
79.58	1061	1083.847
79.648	1073	1083.772
79.716	1030	1083.696
79.784	1080	1083.583
79.852	1076	1083.508
79.92	1055	1083.434
79.988	1061	1083.359
80.056	1109	1083.285
80.124	1077	1083.21
80.192	1085	1083.136
80.26	1083	1083.061
80.328	1059	1082.987
80.396	1069	1082.913
80.464	1046	1082.839
80.532	1058	1082.764
80.6	1041	1082.69
80.668	1069	1082.616
80.736	1088	1082.542
80.804	1052	1082.468
80.872	1151	1082.394
80.94	1031	1082.32
81.008	1037	1082.246
81.076	1072	1082.172
81.144	1049	1082.098
81.212	1093	1082.024
81.28	1064	1081.95
81.348	1043	1081.849
81.416	1081	1081.776
81.484	1108	1081.702
81.552	1081	1081.629
81.62	1089	1081.555
81.688	1135	1081.482
81.756	1123	1081.408
81.824	1159	1081.335
81.892	1155	1081.261
81.96	1162	1081.188
82.028	1173	1081.114
82.096	1162	1081.041
82.164	1211	1080.968
82.232	1257	1080.894
82.3	1332	1080.821
82.368	1345	1080.748
82.436	1311	1080.674
82.504	1242	1080.601
82.572	1152	1080.528
82.64	1186	1080.455
82.708	1081	1080.382
82.776	1126	1080.308
82.844	1108	1080.235
82.912	1086	1080.162
82.98	1084	1080.089
83.048	1136	1080.016
83.116	1091	1079.943
83.184	1115	1079.87
83.252	1111	1079.797
83.32	1086	1079.724
83.388	1163	1079.651
83.456	1122	1079.578
83.524	1123	1079.505
83.592	1084	1079.432
83.66	1015	1079.359
83.728	1131	1079.286
83.796	1116	1079.213
83.864	1079	1079.14
83.932	1050	1079.067
84	1052	1078.995
84.068	1063	1078.922
84.136	1076	1078.849
84.204	1110	1078.776
84.272	1075	1078.703
84.34	1076	1078.631
84.408	1053	1078.558
84.476	1041	1078.485
84.544	1055	1078.412
84.612	1075	1078.34
84.68	1072	1078.267
84.748	1090	1078.194
84.816	1046	1078.122
84.884	1083	1078.049
84.952	1100	1077.976
85.02	1082	1077.904
85.088	1074	1077.831
85.156	1043	1077.758
85.224	1074	1077.686
85.292	1049	1077.613
85.36	1074	1077.541
85.428	1089	1077.468
85.496	1075	1077.396
85.564	1052	1077.323
85.632	1027	1077.251
85.7	1078	1077.178
85.768	1079	1077.106
85.836	1068	1077.033
85.904	1034	1076.961
85.972	1044	1076.888
86.04	984	1076.816
86.108	1068	1076.744
86.176	1052	1076.671
86.244	1034	1076.599
86.312	1071	1076.526
86.38	1082	1076.454
86.448	1088	1076.382
86.516	1069	1076.309
86.584	1015	1076.237
86.652	1108	1076.165
86.72	1095	1076.092
86.788	1080	1076.02
86.856	1050	1075.948
86.924	1003	1075.875
86.992	1055	1075.803
87.06	1088	1075.731
87.128	1043	1075.659
87.196	1120	1075.586
87.264	1081	1075.514
87.332	1070	1075.442
87.4	1077	1075.37
87.468	1121	1075.298
87.536	1034	1075.225
87.604	1119	1075.153
87.672	1084	1075.081
87.74	1130	1075.009
87.808	1163	1074.937
87.876	1169	1074.865
87.944	1265	1074.793
88.012	1354	1074.721
88.08	1591	1074.648
88.148	1642	1074.576
88.216	1712	1074.504
88.284	1557	1074.432
88.352	1522	1074.36
88.42	1478	1074.288
88.488	1357	1074.216
88.556	1269	1074.144
88.624	1238	1074.072
88.692	1191	1074
88.76	1247	1073.928
88.828	1190	1073.856
88.896	1156	1073.784
88.964	1115	1073.712
89.032	1152	1073.64
89.1	1125	1073.568
89.168	1133	1073.496
89.236	1106	1073.424
89.304	1044	1073.352
89.372	1073	1073.281
89.44	1038	1073.209
89.508	1045	1073.137
89.576	1075	1073.065
89.644	1085	1072.993
89.712	1125	1072.921
89.78	1077	1072.849
89.848	1105	1072.778
89.916	1044	1072.706
89.984	1075	1072.634
90.052	1049	1072.562
90.12	1089	1072.49
90.188	1059	1072.418
90.256	1027	1072.347
90.324	1094	1072.275
90.392	1063	1072.203
90.46	1066	1072.131
90.528	1116	1072.06
90.596	1033	1071.988
90.664	1048	1071.916
90.732	1025	1071.844
90.8	1068	1071.773
90.868	1115	1071.701
90.936	1038	1071.629
91.004	1100	1071.558
91.072	1088	1071.486
91.14	1061	1071.414
91.208	1117	1071.343
91.276	1067	1071.271
91.344	1084	1071.199
91.412	1044	1071.128
91.48	1069	1071.056
91.548	1049	1070.952
91.616	1092	1070.881
91.684	1043	1070.809
91.752	1077	1070.738
91.82	1042	1070.667
91.888	1067	1070.595
91.956	1054	1070.524
92.024	1077	1070.452
92.092	1036	1070.381
92.16	1098	1070.31
92.228	1094	1070.238
92.296	1114	1070.167
92.364	1054	1070.096
92.432	1083	1070.024
92.5	1129	1069.953
92.568	1156	1069.882
92.636	1126	1069.81
92.704	1190	1069.739
92.772	1181	1069.668
92.84	1267	1069.596
92.908	1415	1069.525
92.976	1473	1069.454
93.044	1509	1069.383
93.112	1580	1069.311
93.18	1701	1069.24
93.248	1785	1069.169
93.316	1666	1069.098
93.384	1562	1069.026
93.452	1433	1068.955
93.52	1426	1068.884
93.588	1334	1068.813
93.656	1223	1068.741
93.724	1138	1068.67
93.792	1103	1068.599
93.86	1107	1068.528
93.928	1096	1068.457
93.996	1152	1068.386
94.064	1151	1068.314
94.132	1110	1068.243
94.2	1132	1068.172
94.268	1167	1068.101
94.336	1190	1068.03
94.404	1228	1067.959
94.472	1240	1067.887
94.54	1189	1067.816
94.608	1160	1067.745
94.676	1157	1067.674
94.744	1175	1067.603
94.812	1136	1067.532
94.88	1140	1067.461
94.948	1071	1067.39
95.016	1083	1067.319
95.084	1073	1067.248
95.152	1096	1067.177
95.22	1063	1067.105
95.288	1084	1067.034
95.356	1065	1066.963
95.424	1084	1066.892
95.492	1040	1066.821
95.56	1033	1066.75
95.628	1087	1066.679
95.696	1061	1066.608
95.764	1046	1066.537
95.832	1068	1066.466
95.9	1028	1066.395
95.968	1106	1066.324
96.036	1042	1066.253
96.104	1065	1066.182
96.172	1062	1066.111
96.24	1069	1066.04
96.308	1070	1065.969
96.376	1097	1065.899
96.444	1045	1065.828
96.512	1021	1065.757
96.58	1063	1065.686
96.648	1016	1065.615
96.716	1006	1065.544
96.784	1112	1065.473
96.852	1055	1065.402
96.92	1092	1065.331
96.988	1063	1065.26
97.056	1019	1065.189
97.124	1108	1065.119
97.192	1114	1065.048
97.26	1075	1064.977
97.328	1093	1064.906
97.396	1120	1064.835
97.464	1125	1064.764
97.532	1114	1064.694
97.6	1101	1064.623
97.668	1030	1064.552
97.736	1059	1064.481
97.804	1086	1064.41
97.872	1074	1064.34
97.94	1059	1064.269
98.008	1052	1064.198
98.076	1067	1064.127
98.144	1059	1064.056
98.212	1033	1063.986
98.28	1119	1063.915
98.348	1061	1063.844
98.416	1054	1063.773
98.484	1036	1063.703
98.552	1061	1063.632
98.62	1075	1063.561
98.688	1100	1063.491
98.756	1072	1063.42
98.824	1088	1063.349
98.892	1108	1063.278
98.96	1120	1063.208
99.028	1142	1063.137
99.096	1157	1063.066
99.164	1099	1062.996
99.232	1088	1062.925
99.3	1117	1062.854
99.368	1131	1062.784
99.436	1100	1062.713
99.504	1086	1062.643
99.572	1058	1062.572
99.64	1019	1062.501
99.708	1071	1062.431
99.776	1139	1062.36
99.844	1087	1062.29
99.912	1080	1062.219
99.963	1193	1062.166