File: module_examples/data_for_exercises/XRD_Rietveld.csv
x,y_obs,weight,y_calc,y_bkg,Q,phase 1,phase 2
16,1163,0.00086,1151.37,1151.342,0.978,1.34542,2.55108
16.085,1095,0.00091,1151.279,1151.251,0.983,3.38592,
16.17,1085,0.00092,1151.189,1151.16,0.988,4.59551,
16.255,1098,0.00091,1151.099,1151.069,0.993,,
16.34,1097,0.00091,1151.009,1150.978,0.998,,
16.425,1116,0.0009,1150.92,1150.888,1.003,,
16.51,1093,0.00091,1150.831,1150.798,1.009,,
16.595,1060,0.00094,1150.742,1150.709,1.014,,
16.68,1116,0.0009,1150.655,1150.62,1.019,,
16.765,1064,0.00094,1150.567,1150.531,1.024,,
16.85,1051,0.00095,1150.48,1150.443,1.029,,
16.935,1122,0.00089,1150.394,1150.356,1.034,,
17.02,1114,0.0009,1150.309,1150.269,1.04,,
17.105,1103,0.00091,1150.224,1150.183,1.045,,
17.19,1067,0.00094,1150.14,1150.098,1.05,,
17.275,1052,0.00095,1150.057,1150.013,1.055,,
17.36,1099,0.00091,1149.976,1149.93,1.06,,
17.445,1079,0.00093,1149.895,1149.848,1.065,,
17.53,1117,0.0009,1149.816,1149.767,1.07,,
17.615,1087,0.00092,1149.739,1149.688,1.076,,
17.7,1148,0.00087,1149.663,1149.611,1.081,,
17.785,1076,0.00093,1149.59,1149.535,1.086,,
17.87,1081,0.00093,1149.519,1149.462,1.091,,
17.955,1114,0.0009,1149.452,1149.392,1.096,,
18.04,1058,0.00095,1149.387,1149.325,1.101,,
18.125,1080,0.00093,1149.327,1149.262,1.106,,
18.21,1091,0.00092,1149.271,1149.204,1.112,,
18.295,1093,0.00091,1149.222,1149.151,1.117,,
18.38,1077,0.00093,1149.179,1149.105,1.122,,
18.465,1070,0.00093,1149.145,1149.068,1.127,,
18.55,1080,0.00093,1149.122,1149.041,1.132,,
18.635,1098,0.00091,1149.112,1149.027,1.137,,
18.72,1063,0.00094,1149.12,1149.031,1.142,,
18.805,1135,0.00088,1149.15,1149.056,1.148,,
18.89,1138,0.00088,1149.21,1149.11,1.153,,
18.975,1136,0.00088,1149.309,1149.204,1.158,,
19.06,1161,0.00086,1149.464,1149.353,1.163,,
19.145,1059,0.00094,1149.698,1149.581,1.168,,
19.23,1106,0.0009,1150.048,1149.924,1.173,,
19.315,1078,0.00093,1150.578,1150.446,1.178,,
19.4,1110,0.0009,1151.401,1151.261,1.184,,
19.485,1107,0.0009,1152.735,1152.585,1.189,,
19.57,1090,0.00092,1155.044,1154.884,1.194,,
19.655,1093,0.00091,1159.471,1159.3,1.199,,
19.74,1133,0.00088,1169.457,1169.274,1.204,,
19.825,1172,0.00085,1199.427,1199.23,1.209,,
19.91,1405,0.00071,1358.206,1357.993,1.214,,
19.995,1588,0.00063,1661.295,1661.065,1.219,,
20.08,1238,0.00081,1240.242,1239.991,1.225,,
20.165,1146,0.00087,1179.082,1178.809,1.23,,
20.25,1119,0.00089,1162.713,1162.414,1.235,,
20.335,1127,0.00089,1156.166,1155.838,1.24,,
20.42,1174,0.00085,1152.906,1152.544,1.245,,
20.505,1168,0.00086,1151.045,1150.643,1.25,,
20.59,1154,0.00087,1149.879,1149.431,1.255,,
20.675,1109,0.0009,1149.101,1148.598,1.261,,
20.76,1143,0.00087,1148.558,1147.99,1.266,,
20.845,1142,0.00088,1148.172,1147.525,1.271,,
20.93,1168,0.00086,1147.898,1147.154,1.276,,
21.015,1153,0.00087,1147.713,1146.847,1.281,,
21.1,1193,0.00084,1147.606,1146.587,1.286,,
21.185,1173,0.00085,1147.576,1146.361,1.291,,
21.27,1134,0.00088,1147.635,1146.16,1.296,,
21.355,1108,0.0009,1147.805,1145.978,1.302,,
21.44,1119,0.00089,1148.134,1145.811,1.307,,
21.525,1129,0.00089,1148.705,1145.656,1.312,,
21.61,1145,0.00087,1149.685,1145.51,1.317,,
21.695,1178,0.00085,1151.426,1145.372,1.322,,
21.78,1211,0.00083,1154.789,1145.24,1.327,,
21.865,1187,0.00084,1165.573,1145.113,1.332,,
21.95,1336,0.00075,1289.267,1144.99,1.337,,
22.035,2120,0.00047,1943.033,1144.871,1.342,,
22.12,2380,0.00042,2304.843,1144.754,1.348,,
22.205,1392,0.00072,1560.074,1144.641,1.353,,
22.29,1236,0.00081,1199.155,1144.529,1.358,,
22.375,1181,0.00085,1157.764,1144.42,1.363,,
22.46,1166,0.00086,1151.956,1144.312,1.368,,
22.545,1158,0.00086,1149.266,1144.206,1.373,,
22.63,1195,0.00084,1147.691,1144.1,1.378,,
22.715,1143,0.00087,1146.674,1143.996,1.383,,
22.8,1152,0.00087,1145.965,1143.893,1.388,,
22.885,1160,0.00086,1145.442,1143.791,1.394,,
22.97,1207,0.00083,1145.035,1143.69,1.399,,
23.055,1173,0.00085,1144.707,1143.589,1.404,,
23.14,1136,0.00088,1144.432,1143.489,1.409,,
23.225,1177,0.00085,1144.196,1143.389,1.414,,
23.31,1174,0.00085,1143.988,1143.29,1.419,,
23.395,1163,0.00086,1143.801,1143.192,1.424,,
23.48,1159,0.00086,1143.63,1143.093,1.429,,
23.565,1156,0.00087,1143.472,1142.996,1.434,,
23.65,1122,0.00089,1143.324,1142.898,1.439,,
23.735,1156,0.00087,1143.184,1142.801,1.445,,
23.82,1116,0.0009,1143.05,1142.704,1.45,,
23.905,1191,0.00084,1142.922,1142.608,1.455,,
23.99,1192,0.00084,1142.798,1142.511,1.46,,
24.075,1182,0.00085,1142.677,1142.415,1.465,,
24.16,1189,0.00084,1142.56,1142.319,1.47,,
24.245,1165,0.00086,1142.446,1142.224,1.475,,
24.33,1149,0.00087,1142.334,1142.128,1.48,,
24.415,1135,0.00088,1142.224,1142.033,1.485,,
24.5,1190,0.00084,1142.115,1141.938,1.49,,
24.585,1156,0.00087,1142.008,1141.843,1.496,,
24.67,1171,0.00085,1141.903,1141.748,1.501,,
24.755,1186,0.00084,1141.798,1141.653,1.506,,
24.84,1159,0.00086,1141.695,1141.558,1.511,,
24.925,1173,0.00085,1141.697,1141.569,1.516,,
25.01,1194,0.00084,1141.597,1141.476,1.521,,
25.095,1133,0.00088,1141.499,1141.384,1.526,,
25.18,1159,0.00086,1141.401,1141.293,1.531,,
25.265,1179,0.00085,1141.303,1141.201,1.536,,
25.35,1231,0.00081,1141.206,1141.11,1.541,,
25.435,1129,0.00089,1141.11,1141.018,1.546,,
25.52,1177,0.00085,1141.015,1140.927,1.551,,
25.605,1190,0.00084,1140.92,1140.836,1.557,,
25.69,1131,0.00088,1140.825,1140.746,1.562,,
25.775,1206,0.00083,1140.731,1140.655,1.567,,
25.86,1165,0.00086,1140.637,1140.565,1.572,,
25.945,1190,0.00084,1140.544,1140.474,1.577,,
26.03,1095,0.00091,1140.451,1140.384,1.582,,
26.115,1159,0.00086,1140.38,1140.295,1.587,,
26.2,1158,0.00086,1140.299,1140.205,1.592,,
26.285,1147,0.00087,1140.208,1140.116,1.597,,
26.37,1160,0.00086,1140.117,1140.026,1.602,,
26.455,1124,0.00089,1140.026,1139.937,1.607,,
26.54,1146,0.00087,1139.936,1139.849,1.612,,
26.625,1118,0.00089,1139.846,1139.76,1.617,,
26.71,1190,0.00084,1139.757,1139.672,1.623,,
26.795,1132,0.00088,1139.667,1139.584,1.628,,
26.88,1097,0.00091,1139.579,1139.496,1.633,,
26.965,1153,0.00087,1139.49,1139.408,1.638,,
27.05,1127,0.00089,1139.402,1139.321,1.643,,
27.135,1144,0.00087,1139.314,1139.234,1.648,,
27.22,1130,0.00088,1139.203,1139.123,1.653,,
27.305,1182,0.00085,1139.117,1139.037,1.658,,
27.39,1126,0.00089,1139.031,1138.952,1.663,,
27.475,1178,0.00085,1138.945,1138.867,1.668,,
27.56,1167,0.00086,1138.86,1138.782,1.673,,
27.645,1148,0.00087,1138.776,1138.697,1.678,,
27.73,1094,0.00091,1138.691,1138.613,1.683,,
27.815,1190,0.00084,1138.608,1138.53,1.688,,
27.9,1129,0.00089,1138.524,1138.446,1.693,,
27.985,1137,0.00088,1138.442,1138.364,1.699,,
28.07,1134,0.00088,1138.36,1138.281,1.704,,
28.155,1099,0.00091,1138.278,1138.2,1.709,,
28.24,1117,0.0009,1138.459,1138.381,1.714,,
28.325,1150,0.00087,1138.384,1138.304,1.719,,
28.41,1147,0.00087,1138.309,1138.229,1.724,,
28.495,1099,0.00091,1138.234,1138.154,1.729,,
28.58,1156,0.00087,1138.161,1138.081,1.734,,
28.665,1090,0.00092,1138.089,1138.008,1.739,,
28.75,1123,0.00089,1138.018,1137.936,1.744,,
28.835,1146,0.00087,1137.948,1137.865,1.749,,
28.92,1197,0.00084,1137.879,1137.796,1.754,,
29.005,1152,0.00087,1137.812,1137.728,1.759,,
29.09,1155,0.00087,1137.746,1137.661,1.764,,
29.175,1185,0.00084,1137.682,1137.596,1.769,,
29.26,1134,0.00088,1137.619,1137.532,1.774,,
29.345,1137,0.00088,1137.559,1137.47,1.779,,
29.43,1163,0.00086,1137.5,1137.41,1.784,,
29.515,1151,0.00087,1137.444,1137.353,1.789,,
29.6,1161,0.00086,1137.39,1137.297,1.794,,
29.685,1195,0.00084,1137.338,1137.244,1.799,,
29.77,1214,0.00082,1137.29,1137.194,1.804,,
29.855,1165,0.00086,1137.244,1137.148,1.81,,
29.94,1128,0.00089,1137.203,1137.104,1.815,,
30.025,1156,0.00087,1137.165,1137.065,1.82,,
30.11,1144,0.00087,1137.132,1137.03,1.825,,
30.195,1161,0.00086,1137.104,1136.999,1.83,,
30.28,1204,0.00083,1137.081,1136.975,1.835,,
30.365,1163,0.00086,1137.065,1136.956,1.84,,
30.45,1202,0.00083,1137.056,1136.945,1.845,,
30.535,1124,0.00089,1137.055,1136.941,1.85,,
30.62,1157,0.00086,1137.063,1136.947,1.855,,
30.705,1196,0.00084,1137.082,1136.963,1.86,,
30.79,1137,0.00088,1137.114,1136.992,1.865,,
30.875,1136,0.00088,1137.16,1137.035,1.87,,
30.96,1174,0.00085,1137.223,1137.095,1.875,,
31.045,1186,0.00084,1137.306,1137.175,1.88,,
31.13,1133,0.00088,1137.413,1137.278,1.885,,
31.215,1134,0.00088,1137.549,1137.41,1.89,,
31.3,1096,0.00091,1137.719,1137.576,1.895,,
31.385,1182,0.00085,1137.932,1137.785,1.9,,
31.47,1165,0.00086,1138.197,1138.046,1.905,,
31.555,1140,0.00088,1138.62,1138.372,1.91,,
31.64,1170,0.00085,1139.049,1138.781,1.915,,
31.725,1190,0.00084,1139.605,1139.298,1.92,,
31.81,1147,0.00087,1140.271,1139.956,1.925,,
31.895,1126,0.00089,1141.126,1140.803,1.93,,
31.98,1167,0.00086,1142.24,1141.908,1.935,,
32.065,1141,0.00088,1143.72,1143.38,1.94,,
32.15,1154,0.00087,1145.732,1145.383,1.945,,
32.235,1142,0.00088,1148.551,1148.192,1.95,,
32.32,1103,0.00091,1152.649,1152.28,1.955,,
32.405,1136,0.00088,1158.905,1158.525,1.96,,
32.49,1178,0.00085,1169.093,1168.7,1.965,,
32.575,1163,0.00086,1187.225,1186.82,1.97,,
32.66,1213,0.00082,1223.902,1223.484,1.975,,
32.745,1243,0.0008,1313.885,1313.454,1.98,,
32.83,1645,0.00061,1603.317,1602.871,1.985,,
32.915,2228,0.00045,2295.121,2294.66,1.99,,
33,1702,0.00059,1708.168,1707.69,1.995,,
33.085,1399,0.00071,1343.03,1342.535,2,,
33.17,1211,0.00083,1234.111,1233.596,2.005,,
33.255,1172,0.00085,1191.592,1191.052,2.01,,
33.34,1215,0.00082,1171.125,1170.561,2.015,,
33.425,1158,0.00086,1159.807,1159.219,2.02,,
33.51,1172,0.00085,1152.916,1152.303,2.025,,
33.595,1213,0.00082,1148.418,1147.778,2.03,,
33.68,1158,0.00086,1145.323,1144.652,2.035,,
33.765,1138,0.00088,1143.104,1142.401,2.04,,
33.85,1139,0.00088,1141.46,1140.722,2.045,,
33.935,1125,0.00089,1140.212,1139.435,2.05,,
34.02,1154,0.00087,1139.244,1138.425,2.055,,
34.105,1157,0.00086,1138.482,1137.617,2.06,,
34.19,1130,0.00088,1137.875,1136.958,2.065,,
34.275,1140,0.00088,1137.389,1136.415,2.07,,
34.36,1147,0.00087,1136.999,1135.962,2.075,,
34.445,1161,0.00086,1136.688,1135.579,2.08,,
34.53,1178,0.00085,1136.443,1135.254,2.085,,
34.615,1153,0.00087,1136.256,1134.976,2.09,,
34.7,1114,0.0009,1136.115,1134.737,2.095,,
34.785,1141,0.00088,1136.029,1134.532,2.1,,
34.87,1159,0.00086,1135.99,1134.356,2.105,,
34.955,1131,0.00088,1136.055,1134.26,2.11,,
35.04,1135,0.00088,1136.117,1134.132,2.115,,
35.125,1142,0.00088,1136.32,1134.112,2.12,,
35.21,1190,0.00084,1136.507,1134.029,2.125,,
35.295,1167,0.00086,1136.771,1133.965,2.13,,
35.38,1098,0.00091,1137.13,1133.918,2.135,,
35.465,1145,0.00087,1137.611,1133.89,2.139,,
35.55,1176,0.00085,1138.252,1133.878,2.144,,
35.635,1181,0.00085,1139.114,1133.885,2.149,,
35.72,1177,0.00085,1140.291,1133.91,2.154,,
35.805,1098,0.00091,1141.94,1133.955,2.159,,
35.89,1177,0.00085,1144.335,1134.02,2.164,,
35.975,1219,0.00082,1147.987,1134.107,2.169,,
36.06,1177,0.00085,1153.957,1134.218,2.174,,
36.145,1200,0.00083,1165.888,1134.356,2.179,,
36.23,1303,0.00077,1224.214,1134.522,2.184,,
36.315,1691,0.00059,1624.735,1134.721,2.189,,
36.4,2864,0.00035,2786.996,1134.957,2.194,,
36.485,3664,0.00027,3466.304,1135.235,2.199,,
36.57,2325,0.00043,2554.325,1135.56,2.204,,
36.655,1466,0.00068,1549.388,1135.94,2.209,,
36.74,1273,0.00079,1218.898,1136.384,2.214,,
36.825,1221,0.00082,1166.953,1136.902,2.219,,
36.91,1144,0.00087,1156.47,1137.509,2.224,,
36.995,1163,0.00086,1151.943,1138.462,2.229,,
37.08,1159,0.00086,1149.436,1139.304,2.234,,
37.165,1170,0.00085,1148.238,1140.299,2.239,,
37.25,1138,0.00088,1147.909,1141.482,2.243,,
37.335,1159,0.00086,1148.277,1142.896,2.248,,
37.42,1083,0.00092,1149.202,1144.602,2.253,,
37.505,1132,0.00088,1150.676,1146.68,2.258,,
37.59,1145,0.00087,1152.77,1149.24,2.263,,
37.675,1157,0.00086,1155.604,1152.44,2.268,,
37.76,1150,0.00087,1159.379,1156.505,2.273,,
37.845,1138,0.00088,1164.42,1161.78,2.278,,
37.93,1124,0.00089,1171.259,1168.806,2.283,,
38.015,1184,0.00084,1180.804,1178.504,2.288,,
38.1,1139,0.00088,1194.772,1192.595,2.293,,
38.185,1210,0.00083,1216.98,1214.904,2.298,,
38.27,1353,0.00074,1259.151,1257.155,2.303,,
38.355,1847,0.00054,1394.335,1392.404,2.308,,
38.44,2713,0.00037,2403.631,2401.751,2.312,,
38.525,1890,0.00053,1543.734,1541.892,2.317,,
38.61,1594,0.00063,1720.351,1718.536,2.322,,
38.695,2155,0.00046,2331.91,2330.112,2.327,,
38.78,3660,0.00027,3667.103,3665.315,2.332,,
38.865,3486,0.00029,3397.681,3395.893,2.337,,
38.95,2116,0.00047,2151.927,2150.133,2.342,,
39.035,1545,0.00065,1627.868,1626.059,2.347,,
39.12,1329,0.00075,1413.192,1411.362,2.352,,
39.205,1258,0.00079,1310.183,1308.325,2.357,,
39.29,1288,0.00078,1253.891,1251.986,2.362,,
39.375,1222,0.00082,1220.039,1218.085,2.367,,
39.46,1187,0.00084,1198.182,1196.179,2.371,,
39.545,1158,0.00086,1183.287,1181.228,2.376,,
39.63,1178,0.00085,1172.699,1170.575,2.381,,
39.715,1200,0.00083,1164.914,1162.718,2.386,,
39.8,1211,0.00083,1159.032,1156.754,2.391,,
39.885,1235,0.00081,1154.488,1152.119,2.396,,
39.97,1140,0.00088,1150.913,1148.442,2.401,,
40.055,1157,0.00086,1148.059,1145.475,2.406,,
40.14,1185,0.00084,1145.753,1143.043,2.411,,
40.225,1195,0.00084,1143.874,1141.025,2.415,,
40.31,1156,0.00087,1142.334,1139.329,2.42,,
40.395,1169,0.00086,1141.069,1137.89,2.425,,
40.48,1151,0.00087,1140.03,1136.658,2.43,,
40.565,1279,0.00078,1139.183,1135.594,2.435,,
40.65,1248,0.0008,1138.502,1134.668,2.44,,
40.735,1221,0.00082,1137.967,1133.858,2.445,,
40.82,1194,0.00084,1137.565,1133.146,2.45,,
40.905,1118,0.00089,1137.288,1132.515,2.455,,
40.99,1181,0.00085,1137.133,1131.956,2.459,,
41.075,1175,0.00085,1137.098,1131.458,2.464,,
41.16,1192,0.00084,1137.19,1131.012,2.469,,
41.245,1161,0.00086,1137.418,1130.614,2.474,,
41.33,1141,0.00088,1137.797,1130.258,2.479,,
41.415,1148,0.00087,1138.35,1129.939,2.484,,
41.5,1135,0.00088,1139.113,1129.655,2.489,,
41.585,1173,0.00085,1140.132,1129.402,2.494,,
41.67,1172,0.00085,1141.477,1129.178,2.498,,
41.755,1201,0.00083,1143.252,1128.982,2.503,,
41.84,1222,0.00082,1145.611,1128.812,2.508,,
41.925,1136,0.00088,1148.799,1128.667,2.513,,
42.01,1202,0.00083,1153.219,1128.549,2.518,,
42.095,1202,0.00083,1159.582,1128.455,2.523,,
42.18,1242,0.00081,1169.288,1128.388,2.528,,
42.265,1282,0.00078,1187.674,1128.347,2.533,,
42.35,1389,0.00072,1270.857,1128.336,2.537,,
42.435,1719,0.00058,1773.149,1128.355,2.542,,
42.52,2726,0.00037,3218.122,1128.407,2.547,,
42.605,4790,0.00021,4430.674,1128.496,2.552,,
42.69,4015,0.00025,3728.756,1128.628,2.557,,
42.775,2690,0.00037,2385.78,1128.807,2.562,,
42.86,2750,0.00036,2398.78,1129.041,2.567,,
42.945,4803,0.00021,4813.029,1129.34,2.571,,
43.03,7912,0.00013,7725.787,1129.716,2.576,,
43.115,6744,0.00015,7013.956,1130.185,2.581,,
43.2,3823,0.00026,3992.092,1130.767,2.586,,
43.285,2127,0.00047,1951.108,1131.491,2.591,,
43.37,1533,0.00065,1337.413,1132.354,2.596,,
43.455,1258,0.00079,1226.167,1133.486,2.6,,
43.54,1221,0.00082,1197.268,1134.916,2.605,,
43.625,1272,0.00079,1182.795,1136.744,2.61,,
43.71,1153,0.00087,1174.706,1139.117,2.615,,
43.795,1173,0.00085,1170.723,1142.256,2.62,,
43.88,1145,0.00087,1169.924,1146.506,2.625,,
43.965,1196,0.00084,1172.166,1152.436,2.629,,
44.05,1210,0.00083,1178.008,1161.027,2.634,,
44.135,1185,0.00084,1189.008,1174.092,2.639,,
44.22,1213,0.00082,1208.661,1195.286,2.644,,
44.305,1303,0.00077,1245.124,1232.86,2.649,,
44.39,1342,0.00075,1320.089,1308.544,2.654,,
44.475,1470,0.00068,1504.9,1493.667,2.658,,
44.56,2098,0.00048,2108.534,2097.109,2.663,,
44.645,3805,0.00026,3775.661,3763.264,2.668,,
44.73,2505,0.0004,2477.928,2462.211,2.673,,
44.815,1657,0.0006,1626.69,1590.941,2.678,,
44.9,1456,0.00069,1479.815,1342.67,2.683,,
44.985,1577,0.00063,1623.854,1248.033,2.687,,
45.07,1777,0.00056,1743.598,1203.105,2.692,,
45.155,1594,0.00063,1594.451,1178.509,2.697,,
45.24,1328,0.00075,1349.298,1163.669,2.702,,
45.325,1159,0.00086,1207.958,1154.074,2.707,,
45.41,1206,0.00083,1164.395,1147.55,2.711,,
45.495,1172,0.00085,1152.708,1142.948,2.716,,
45.58,1149,0.00087,1147.145,1139.62,2.721,,
45.665,1167,0.00086,1143.409,1137.178,2.726,,
45.75,1221,0.00082,1140.745,1135.383,2.731,,
45.835,1171,0.00085,1138.827,1134.087,2.735,,
45.92,1108,0.0009,1137.474,1133.195,2.74,,
46.005,1122,0.00089,1136.581,1132.655,2.745,,
46.09,1144,0.00087,1136.092,1132.444,2.75,,
46.175,1127,0.00089,1135.995,1132.567,2.755,,
46.26,1171,0.00085,1136.311,1133.062,2.759,,
46.345,1119,0.00089,1137.107,1134.001,2.764,,
46.43,1149,0.00087,1138.504,1135.515,2.769,,
46.515,1166,0.00086,1140.718,1137.822,2.774,,
46.6,1145,0.00087,1144.118,1141.295,2.779,,
46.685,1124,0.00089,1149.36,1146.593,2.783,,
46.77,1151,0.00087,1157.672,1154.945,2.788,,
46.855,1170,0.00085,1171.536,1168.833,2.793,,
46.94,1162,0.00086,1196.46,1193.767,2.798,,
47.025,1205,0.00083,1246.075,1243.379,2.802,,
47.11,1351,0.00074,1356.208,1353.494,2.807,,
47.195,1587,0.00063,1583.445,1580.699,2.812,,
47.28,1683,0.00059,1679.947,1677.154,2.817,,
47.365,1469,0.00068,1439.025,1436.168,2.822,,
47.45,1266,0.00079,1281.985,1279.048,2.826,,
47.535,1197,0.00084,1212.342,1209.305,2.831,,
47.62,1212,0.00083,1178.863,1175.706,2.836,,
47.705,1126,0.00089,1160.807,1157.502,2.841,,
47.79,1139,0.00088,1150.125,1146.646,2.845,,
47.875,1097,0.00091,1143.359,1139.671,2.85,,
47.96,1085,0.00092,1138.857,1134.922,2.855,,
48.045,1129,0.00089,1135.765,1131.534,2.86,,
48.13,1154,0.00087,1133.609,1129.023,2.864,,
48.215,1146,0.00087,1132.114,1127.102,2.869,,
48.3,1143,0.00087,1131.122,1125.593,2.874,,
48.385,1112,0.0009,1130.541,1124.38,2.879,,
48.47,1134,0.00088,1130.328,1123.384,2.883,,
48.555,1064,0.00094,1130.477,1122.552,2.888,,
48.64,1135,0.00088,1131.02,1121.846,2.893,,
48.725,1155,0.00087,1132.036,1121.239,2.898,,
48.81,1119,0.00089,1133.662,1120.71,2.902,,
48.895,1185,0.00084,1136.142,1120.243,2.907,,
48.98,1185,0.00084,1139.897,1119.828,2.912,,
49.065,1173,0.00085,1145.691,1119.455,2.917,,
49.15,1256,0.0008,1155.139,1119.116,2.921,,
49.235,1325,0.00075,1175.796,1118.807,2.926,,
49.32,1575,0.00063,1276.244,1118.522,2.931,,
49.405,1920,0.00052,1818.404,1118.259,2.936,,
49.49,3039,0.00033,3386.475,1118.013,2.94,,
49.575,6130,0.00016,5200.465,1117.783,2.945,,
49.66,4746,0.00021,5154.774,1117.567,2.95,,
49.745,3104,0.00032,3545.381,1117.362,2.955,,
49.83,1745,0.00057,2023.035,1117.167,2.959,,
49.915,1366,0.00073,1350.097,1116.982,2.964,,
50,1281,0.00078,1186.796,1116.804,2.969,,
50.085,1177,0.00085,1155.401,1116.634,2.973,,
50.17,1209,0.00083,1144.134,1116.47,2.978,,
50.255,1133,0.00088,1137.376,1116.312,2.983,,
50.34,1162,0.00086,1132.826,1116.159,2.988,,
50.425,1146,0.00087,1129.669,1116.071,2.992,,
50.51,1075,0.00093,1127.31,1115.928,2.997,,
50.595,1065,0.00094,1125.528,1115.788,3.002,,
50.68,1095,0.00091,1124.153,1115.652,3.006,,
50.765,1115,0.0009,1123.072,1115.519,3.011,,
50.85,1084,0.00092,1122.215,1115.389,3.016,,
50.935,1084,0.00092,1121.533,1115.262,3.021,,
51.02,1147,0.00087,1120.992,1115.137,3.025,,
51.105,1036,0.00097,1120.572,1115.014,3.03,,
51.19,1083,0.00092,1120.259,1114.894,3.035,,
51.275,1083,0.00092,1120.048,1114.775,3.039,,
51.36,1087,0.00092,1119.939,1114.658,3.044,,
51.445,1077,0.00093,1119.942,1114.543,3.049,,
51.53,1081,0.00093,1120.074,1114.43,3.053,,
51.615,1098,0.00091,1120.365,1114.318,3.058,,
51.7,1072,0.00093,1120.866,1114.207,3.063,,
51.785,1087,0.00092,1121.659,1114.097,3.068,,
51.87,1114,0.0009,1122.883,1113.989,3.072,,
51.955,1158,0.00086,1124.79,1113.898,3.077,,
52.04,1097,0.00091,1127.854,1113.793,3.082,,
52.125,1205,0.00083,1133.993,1113.688,3.086,,
52.21,1247,0.0008,1157.362,1113.584,3.091,,
52.295,1375,0.00073,1270.756,1113.481,3.096,,
52.38,1609,0.00062,1620.002,1113.379,3.1,,
52.465,2072,0.00048,2139.138,1113.278,3.105,,
52.55,2247,0.00045,2325.438,1113.177,3.11,,
52.635,1959,0.00051,2015.834,1113.077,3.114,,
52.72,1577,0.00063,1555.452,1112.978,3.119,,
52.805,1310,0.00076,1261.938,1112.88,3.124,,
52.89,1198,0.00083,1156.921,1112.782,3.128,,
52.975,1190,0.00084,1132.173,1112.685,3.133,,
53.06,1139,0.00088,1125.549,1112.588,3.138,,
53.145,1102,0.00091,1122.244,1112.492,3.142,,
53.23,1127,0.00089,1120.073,1112.396,3.147,,
53.315,1106,0.0009,1118.535,1112.302,3.152,,
53.4,1120,0.00089,1117.396,1112.207,3.156,,
53.485,1131,0.00088,1116.519,1112.113,3.161,,
53.57,1107,0.0009,1115.824,1112.02,3.166,,
53.655,1153,0.00087,1115.257,1111.927,3.17,,
53.74,1163,0.00086,1114.784,1111.834,3.175,,
53.825,1091,0.00092,1114.382,1111.742,3.18,,
53.91,1067,0.00094,1114.034,1111.65,3.184,,
53.995,1150,0.00087,1113.727,1111.559,3.189,,
54.08,1095,0.00091,1113.453,1111.468,3.193,,
54.165,1133,0.00088,1113.207,1111.378,3.198,,
54.25,1120,0.00089,1112.982,1111.288,3.203,,
54.335,1067,0.00094,1112.774,1111.198,3.207,,
54.42,1123,0.00089,1112.582,1111.109,3.212,,
54.505,1150,0.00087,1112.402,1111.021,3.217,,
54.59,1139,0.00088,1112.306,1111.006,3.221,,
54.675,1124,0.00089,1112.031,1110.802,3.226,,
54.76,1157,0.00086,1111.881,1110.717,3.231,,
54.845,1068,0.00094,1111.737,1110.632,3.235,,
54.93,1132,0.00088,1111.6,1110.548,3.24,,
55.015,1147,0.00087,1111.469,1110.464,3.244,,
55.1,1153,0.00087,1111.342,1110.38,3.249,,
55.185,1059,0.00094,1111.306,1110.383,3.254,,
55.27,1082,0.00092,1111.189,1110.302,3.258,,
55.355,1081,0.00093,1111.075,1110.222,3.263,,
55.44,1076,0.00093,1110.979,1110.142,3.267,,
55.525,1110,0.0009,1110.873,1110.063,3.272,,
55.61,1118,0.00089,1110.776,1109.984,3.277,,
55.695,1112,0.0009,1110.675,1109.906,3.281,,
55.78,1128,0.00089,1110.577,1109.829,3.286,,
55.865,1086,0.00092,1110.482,1109.753,3.291,,
55.95,1144,0.00087,1110.39,1109.677,3.295,,
56.035,1097,0.00091,1110.3,1109.602,3.3,,
56.12,1073,0.00093,1110.106,1109.42,3.304,,
56.205,1035,0.00097,1110.025,1109.349,3.309,,
56.29,1141,0.00088,1109.946,1109.279,3.314,,
56.375,1114,0.0009,1109.871,1109.21,3.318,,
56.46,1131,0.00088,1109.8,1109.143,3.323,,
56.545,1108,0.0009,1109.734,1109.077,3.327,,
56.63,1074,0.00093,1109.675,1109.012,3.332,,
56.715,1093,0.00091,1109.622,1108.95,3.336,,
56.8,1098,0.00091,1109.578,1108.89,3.341,,
56.885,1078,0.00093,1109.546,1108.832,3.346,,
56.97,1052,0.00095,1109.532,1108.778,3.35,,
57.055,1093,0.00091,1109.543,1108.727,3.355,,
57.14,1148,0.00087,1109.595,1108.679,3.359,,
57.225,1093,0.00091,1109.75,1108.637,3.364,,
57.31,1080,0.00093,1110.401,1108.601,3.369,,
57.395,1053,0.00095,1113.395,1108.572,3.373,,
57.48,1113,0.0009,1122.662,1108.551,3.378,,
57.565,1023,0.00098,1138.43,1108.542,3.382,,
57.65,1091,0.00092,1149.193,1108.548,3.387,,
57.735,1057,0.00095,1144.902,1108.572,3.391,,
57.82,1091,0.00092,1131.674,1108.622,3.396,,
57.905,1119,0.00089,1119.208,1108.706,3.4,,
57.99,1075,0.00093,1112.647,1108.84,3.405,,
58.075,1080,0.00093,1110.598,1109.046,3.41,,
58.16,1101,0.00091,1110.36,1109.362,3.414,,
58.245,1043,0.00096,1110.671,1109.856,3.419,,
58.33,1043,0.00096,1111.378,1110.655,3.423,,
58.415,1075,0.00093,1112.684,1112.029,3.428,,
58.5,1111,0.0009,1115.222,1114.616,3.432,,
58.585,1105,0.0009,1120.809,1120.239,3.437,,
58.67,1155,0.00087,1136.234,1135.693,3.441,,
58.755,1238,0.00081,1196.625,1196.106,3.446,,
58.84,1277,0.00078,1287.605,1287.104,3.451,,
58.925,1242,0.00081,1163.237,1162.751,3.455,,
59.01,1085,0.00092,1128.078,1127.603,3.46,,
59.095,1118,0.00089,1117.699,1117.246,3.464,,
59.18,1122,0.00089,1113.453,1113.015,3.469,,
59.265,1024,0.00098,1111.327,1110.896,3.473,,
59.35,1090,0.00092,1110.108,1109.683,3.478,,
59.435,1044,0.00096,1109.341,1108.921,3.482,,
59.52,1076,0.00093,1108.825,1108.41,3.487,,
59.605,1103,0.00091,1108.461,1108.05,3.491,,
59.69,1043,0.00096,1108.195,1107.787,3.496,,
59.775,1051,0.00095,1107.995,1107.59,3.5,,
59.86,1086,0.00092,1107.844,1107.44,3.505,,
59.945,1061,0.00094,1107.729,1107.327,3.509,,
60.03,1065,0.00094,1107.643,1107.242,3.514,,
60.115,1094,0.00091,1107.581,1107.181,3.518,,
60.2,1047,0.00096,1107.511,1107.142,3.523,,
60.285,1075,0.00093,1107.476,1107.121,3.527,,
60.37,1102,0.00091,1107.475,1107.119,3.532,,
60.455,1089,0.00092,1107.493,1107.136,3.536,,
60.54,1071,0.00093,1107.53,1107.172,3.541,,
60.625,1049,0.00095,1107.588,1107.229,3.545,,
60.71,1087,0.00092,1107.669,1107.309,3.55,,
60.795,1106,0.0009,1107.776,1107.413,3.554,,
60.88,1028,0.00097,1107.912,1107.547,3.559,,
60.965,1053,0.00095,1108.082,1107.714,3.563,,
61.05,1090,0.00092,1108.291,1107.921,3.568,,
61.135,1035,0.00097,1108.548,1108.174,3.572,,
61.22,1060,0.00094,1108.861,1108.483,3.577,,
61.305,1065,0.00094,1109.244,1108.862,3.581,,
61.39,1052,0.00095,1109.712,1109.325,3.586,,
61.475,1068,0.00094,1110.287,1109.896,3.59,,
61.56,1091,0.00092,1111,1110.604,3.595,,
61.645,1038,0.00096,1111.891,1111.489,3.599,,
61.73,1073,0.00093,1113.018,1112.61,3.604,,
61.815,1070,0.00093,1114.464,1114.05,3.608,,
61.9,1112,0.0009,1116.353,1115.933,3.613,,
61.985,1056,0.00095,1118.877,1118.449,3.617,,
62.07,1074,0.00093,1122.34,1121.904,3.622,,
62.155,1083,0.00092,1127.255,1126.81,3.626,,
62.24,1112,0.0009,1134.531,1134.077,3.631,,
62.325,1132,0.00088,1145.903,1145.438,3.635,,
62.41,1132,0.00088,1164.964,1164.489,3.639,,
62.495,1139,0.00088,1199.988,1199.502,3.644,,
62.58,1265,0.00079,1272.132,1271.633,3.648,,
62.665,1465,0.00068,1434.673,1434.161,3.653,,
62.75,1727,0.00058,1704.903,1704.379,3.657,,
62.835,1637,0.00061,1638.139,1637.601,3.662,,
62.92,1448,0.00069,1378.307,1377.751,3.666,,
63.005,1275,0.00078,1247.504,1246.93,3.671,,
63.09,1184,0.00084,1188.799,1188.204,3.675,,
63.175,1064,0.00094,1159.471,1158.855,3.679,,
63.26,1128,0.00089,1143.174,1142.533,3.684,,
63.345,1063,0.00094,1133.355,1132.688,3.688,,
63.43,1150,0.00087,1127.089,1126.393,3.693,,
63.515,1157,0.00086,1122.939,1122.21,3.697,,
63.6,1090,0.00092,1120.14,1119.375,3.702,,
63.685,1140,0.00088,1118.267,1117.461,3.706,,
63.77,1099,0.00091,1117.076,1116.224,3.71,,
63.855,1133,0.00088,1116.429,1115.524,3.715,,
63.94,1061,0.00094,1116.259,1115.295,3.719,,
64.025,1095,0.00091,1116.554,1115.522,3.724,,
64.11,1093,0.00091,1117.353,1116.243,3.728,,
64.195,1134,0.00088,1118.759,1117.556,3.733,,
64.28,1089,0.00092,1120.96,1119.649,3.737,,
64.365,1123,0.00089,1124.291,1122.85,3.741,,
64.45,1120,0.00089,1129.349,1127.752,3.746,,
64.535,1117,0.0009,1137.251,1135.463,3.75,,
64.62,1088,0.00092,1150.249,1148.223,3.755,,
64.705,1159,0.00086,1173.384,1171.056,3.759,,
64.79,1173,0.00085,1219.598,1216.878,3.763,,
64.875,1339,0.00075,1328.28,1325.039,3.768,,
64.96,1663,0.0006,1625.903,1621.947,3.772,,
65.045,1945,0.00051,2043.009,2038.018,3.777,,
65.13,1708,0.00059,1627.995,1621.219,3.781,,
65.215,1433,0.0007,1335.805,1324.186,3.785,,
65.3,1234,0.00081,1245.447,1215.739,3.79,,
65.385,1221,0.00082,1256.359,1169.563,3.794,,
65.47,1299,0.00077,1352.672,1146.341,3.799,,
65.555,1447,0.00069,1485.537,1133.161,3.803,,
65.64,1514,0.00066,1543.913,1124.997,3.807,,
65.725,1435,0.0007,1484.381,1119.574,3.812,,
65.81,1389,0.00072,1361.361,1115.821,3.816,,
65.895,1250,0.0008,1239.783,1113.109,3.82,,
65.98,1186,0.00084,1162.74,1111.088,3.825,,
66.065,1095,0.00091,1128.745,1109.544,3.829,,
66.15,1086,0.00092,1117.276,1108.342,3.834,,
66.235,1091,0.00092,1113.285,1107.392,3.838,,
66.32,1138,0.00088,1111.23,1106.634,3.842,,
66.405,1091,0.00092,1109.829,1106.027,3.847,,
66.49,1053,0.00095,1108.789,1105.539,3.851,,
66.575,1095,0.00091,1108.002,1105.151,3.855,,
66.66,1117,0.0009,1107.405,1104.847,3.86,,
66.745,1080,0.00093,1106.957,1104.617,3.864,,
66.83,1056,0.00095,1106.629,1104.454,3.868,,
66.915,1079,0.00093,1106.406,1104.353,3.873,,
67,1119,0.00089,1106.276,1104.313,3.877,,
67.085,1098,0.00091,1106.231,1104.333,3.881,,
67.17,1068,0.00094,1106.271,1104.415,3.886,,
67.255,1101,0.00091,1106.396,1104.564,3.89,,
67.34,1099,0.00091,1106.61,1104.788,3.894,,
67.425,1050,0.00095,1106.921,1105.094,3.899,,
67.51,1085,0.00092,1107.342,1105.497,3.903,,
67.595,1091,0.00092,1107.891,1106.015,3.907,,
67.68,1060,0.00094,1108.59,1106.672,3.912,,
67.765,1075,0.00093,1109.473,1107.499,3.916,,
67.85,1122,0.00089,1110.584,1108.542,3.92,,
67.935,1077,0.00093,1111.968,1109.861,3.925,,
68.02,1122,0.00089,1113.746,1111.542,3.929,,
68.105,1101,0.00091,1116.016,1113.707,3.933,,
68.19,1151,0.00087,1118.979,1116.538,3.938,,
68.275,1143,0.00087,1122.905,1120.311,3.942,,
68.36,1087,0.00092,1128.229,1125.458,3.946,,
68.445,1106,0.0009,1135.668,1132.691,3.951,,
68.53,1127,0.00089,1146.455,1143.238,3.955,,
68.615,1135,0.00088,1162.848,1159.35,3.959,,
68.7,1136,0.00088,1189.285,1185.455,3.964,,
68.785,1200,0.00083,1235.202,1230.979,3.968,,
68.87,1312,0.00076,1322.011,1317.317,3.972,,
68.955,1574,0.00064,1495.13,1489.867,3.976,,
69.04,1798,0.00056,1774.771,1768.811,3.981,,
69.125,1825,0.00055,1834.576,1827.751,3.985,,
69.21,1568,0.00064,1562.359,1554.441,3.989,,
69.295,1370,0.00073,1359.748,1350.423,3.994,,
69.38,1278,0.00078,1258.384,1247.205,3.998,,
69.465,1175,0.00085,1207.45,1193.759,4.002,,
69.55,1189,0.00084,1180.934,1163.652,4.006,,
69.635,1227,0.00081,1168.638,1145.303,4.011,,
69.72,1210,0.00083,1172.006,1133.376,4.015,,
69.805,1324,0.00076,1216.133,1125.211,4.019,,
69.89,1396,0.00072,1370.258,1119.381,4.024,,
69.975,1579,0.00063,1715.113,1115.073,4.028,,
70.06,2087,0.00048,2202.835,1111.795,4.032,,
70.145,2323,0.00043,2560.733,1109.239,4.036,,
70.23,2406,0.00042,2539.123,1107.203,4.041,,
70.315,2297,0.00044,2227.418,1105.551,4.045,,
70.4,1856,0.00054,1806.732,1104.189,4.049,,
70.485,1527,0.00065,1453.695,1103.05,4.053,,
70.57,1338,0.00075,1247.23,1102.084,4.058,,
70.655,1195,0.00084,1159.355,1101.255,4.062,,
70.74,1200,0.00083,1129.991,1100.537,4.066,,
70.825,1155,0.00087,1120.044,1099.909,4.07,,
70.91,1174,0.00085,1115.254,1099.354,4.075,,
70.995,1085,0.00092,1112.126,1098.859,4.079,,
71.08,1115,0.0009,1109.861,1098.415,4.083,,
71.165,1142,0.00088,1108.175,1098.014,4.087,,
71.25,1088,0.00092,1106.913,1097.649,4.092,,
71.335,1084,0.00092,1105.977,1097.315,4.096,,
71.42,1096,0.00091,1105.31,1097.008,4.1,,
71.505,1132,0.00088,1104.875,1096.723,4.104,,
71.59,1091,0.00092,1104.66,1096.458,4.109,,
71.675,1074,0.00093,1104.668,1096.211,4.113,,
71.76,1082,0.00092,1104.919,1095.978,4.117,,
71.845,1077,0.00093,1105.46,1095.759,4.121,,
71.93,1070,0.00093,1106.367,1095.552,4.125,,
72.015,1139,0.00088,1107.77,1095.356,4.13,,
72.1,1001,0.001,1109.903,1095.168,4.134,,
72.185,1150,0.00087,1113.406,1094.989,4.138,,
72.27,1147,0.00087,1121.318,1094.818,4.142,,
72.355,1145,0.00087,1148.274,1094.653,4.147,,
72.44,1210,0.00083,1243.083,1094.494,4.151,,
72.525,1322,0.00076,1497.033,1094.341,4.155,,
72.61,1536,0.00065,1957.603,1094.193,4.159,,
72.695,2268,0.00044,2472.064,1094.049,4.163,,
72.78,3001,0.00033,2715.537,1093.91,4.168,,
72.865,2711,0.00037,2564.645,1093.774,4.172,,
72.95,2278,0.00044,2178.295,1093.641,4.176,,
73.035,1880,0.00053,1738.138,1093.512,4.18,,
73.12,1382,0.00072,1400.279,1093.386,4.184,,
73.205,1243,0.0008,1214.513,1093.262,4.188,,
73.29,1149,0.00087,1140.049,1093.141,4.193,,
73.375,1132,0.00088,1116.608,1093.022,4.197,,
73.46,1133,0.00088,1109.05,1092.905,4.201,,
73.545,1094,0.00091,1105.472,1092.791,4.205,,
73.63,1090,0.00092,1103.115,1092.678,4.209,,
73.715,1101,0.00091,1101.375,1092.566,4.214,,
73.8,1079,0.00093,1100.038,1092.456,4.218,,
73.885,1099,0.00091,1098.984,1092.348,4.222,,
73.97,1111,0.0009,1098.135,1092.241,4.226,,
74.055,1107,0.0009,1097.439,1092.136,4.23,,
74.14,1129,0.00089,1096.86,1092.031,4.234,,
74.225,1086,0.00092,1096.372,1091.928,4.238,,
74.31,1096,0.00091,1095.956,1091.826,4.243,,
74.395,1046,0.00096,1095.6,1091.724,4.247,,
74.48,1088,0.00092,1095.292,1091.624,4.251,,
74.565,1088,0.00092,1095.025,1091.525,4.255,,
74.65,1102,0.00091,1094.793,1091.426,4.259,,
74.735,1083,0.00092,1094.592,1091.328,4.263,,
74.82,1106,0.0009,1094.419,1091.231,4.268,,
74.905,1096,0.00091,1094.271,1091.135,4.272,,
74.99,1011,0.00099,1094.147,1091.039,4.276,,
75.075,1098,0.00091,1094.046,1090.944,4.28,,
75.16,1059,0.00094,1093.968,1090.849,4.284,,
75.245,1074,0.00093,1093.912,1090.755,4.288,,
75.33,1049,0.00095,1093.879,1090.662,4.292,,
75.415,1098,0.00091,1093.872,1090.569,4.296,,
75.5,1061,0.00094,1093.892,1090.477,4.301,,
75.585,1043,0.00096,1093.941,1090.385,4.305,,
75.67,1078,0.00093,1094.024,1090.293,4.309,,
75.755,1079,0.00093,1094.147,1090.202,4.313,,
75.84,1121,0.00089,1094.314,1090.112,4.317,,
75.925,1049,0.00095,1094.535,1090.021,4.321,,
76.01,1070,0.00093,1094.822,1089.931,4.325,,
76.095,1090,0.00092,1095.189,1089.842,4.329,,
76.18,1032,0.00097,1095.655,1089.753,4.333,,
76.265,1096,0.00091,1096.247,1089.664,4.338,,
76.35,1050,0.00095,1097.003,1089.575,4.342,,
76.435,1064,0.00094,1097.974,1089.487,4.346,,
76.52,1059,0.00094,1099.235,1089.399,4.35,,
76.605,1084,0.00092,1100.895,1089.311,4.354,,
76.69,1093,0.00091,1103.126,1089.223,4.358,,
76.775,1085,0.00092,1106.247,1089.136,4.362,,
76.86,1124,0.00089,1111.191,1089.049,4.366,,
76.945,1183,0.00085,1121.825,1088.962,4.37,,
77.03,1187,0.00084,1152.942,1088.876,4.374,,
77.115,1187,0.00084,1244.885,1088.789,4.378,,
77.2,1382,0.00072,1463.598,1088.703,4.382,,
77.285,1647,0.00061,1843.637,1088.617,4.387,,
77.37,2071,0.00048,2292.005,1088.532,4.391,,
77.455,2610,0.00038,2577.501,1088.446,4.395,,
77.54,2677,0.00037,2545.283,1088.361,4.399,,
77.625,2369,0.00042,2279.916,1088.276,4.403,,
77.71,2136,0.00047,1908.541,1088.191,4.407,,
77.795,1687,0.00059,1558.58,1088.106,4.411,,
77.88,1419,0.0007,1315.683,1088.021,4.415,,
77.965,1416,0.00071,1186.591,1087.937,4.419,,
78.05,1198,0.00083,1132.814,1087.852,4.423,,
78.135,1318,0.00076,1113.579,1087.768,4.427,,
78.22,1295,0.00077,1106.117,1087.684,4.431,,
78.305,1190,0.00084,1102.157,1087.6,4.435,,
78.39,1113,0.0009,1099.463,1087.516,4.439,,
78.475,1109,0.0009,1097.443,1087.432,4.443,,
78.56,1091,0.00092,1095.871,1087.349,4.447,,
78.645,1115,0.0009,1094.618,1087.265,4.451,,
78.73,1119,0.00089,1093.599,1087.182,4.455,,
78.815,1113,0.0009,1092.755,1087.099,4.459,,
78.9,1109,0.0009,1092.046,1087.016,4.463,,
78.985,1090,0.00092,1091.441,1086.933,4.467,,
79.07,1056,0.00095,1090.919,1086.85,4.471,,
79.155,1041,0.00096,1090.463,1086.767,4.475,,
79.24,1108,0.0009,1090.061,1086.684,4.48,,
79.325,1042,0.00096,1089.702,1086.602,4.484,,
79.41,1075,0.00093,1089.381,1086.519,4.488,,
79.495,1084,0.00092,1089.089,1086.437,4.492,,
79.58,1061,0.00094,1088.823,1086.354,4.496,,
79.665,1097,0.00091,1088.579,1086.272,4.5,,
79.75,1032,0.00097,1088.354,1086.19,4.504,,
79.835,1010,0.00099,1088.107,1086.07,4.508,,
79.92,1055,0.00095,1087.913,1085.988,4.512,,
80.005,1084,0.00092,1087.731,1085.907,4.516,,
80.09,1109,0.0009,1087.56,1085.825,4.52,,
80.175,1125,0.00089,1087.399,1085.744,4.524,,
80.26,1083,0.00092,1087.247,1085.663,4.527,,
80.345,1073,0.00093,1087.103,1085.581,4.531,,
80.43,1089,0.00092,1086.968,1085.5,4.535,,
80.515,1053,0.00095,1086.839,1085.419,4.539,,
80.6,1041,0.00096,1086.719,1085.338,4.543,,
80.685,1051,0.00095,1086.606,1085.257,4.547,,
80.77,1121,0.00089,1086.501,1085.177,4.551,,
80.855,1054,0.00095,1086.406,1085.096,4.555,,
80.94,1031,0.00097,1086.323,1085.015,4.559,,
81.025,1057,0.00095,1086.255,1084.934,4.563,,
81.11,1040,0.00096,1086.216,1084.854,4.567,,
81.195,1059,0.00094,1086.26,1084.773,4.571,,
81.28,1064,0.00094,1086.543,1084.666,4.575,,
81.365,1053,0.00095,1087.576,1084.586,4.579,,
81.45,1047,0.00096,1090.054,1084.506,4.583,,
81.535,1099,0.00091,1094.422,1084.425,4.587,,
81.62,1089,0.00092,1099.893,1084.345,4.591,,
81.705,1097,0.00091,1104.134,1084.265,4.595,,
81.79,1131,0.00088,1104.889,1084.185,4.599,,
81.875,1148,0.00087,1102.452,1084.105,4.603,,
81.96,1162,0.00086,1098.246,1084.026,4.607,,
82.045,1122,0.00089,1093.572,1083.946,4.611,,
82.13,1233,0.00081,1089.701,1083.866,4.615,,
82.215,1226,0.00082,1087.195,1083.786,4.618,,
82.3,1332,0.00075,1085.91,1083.707,4.622,,
82.385,1354,0.00074,1085.388,1083.627,4.626,,
82.47,1219,0.00082,1085.245,1083.547,4.63,,
82.555,1158,0.00086,1085.338,1083.468,4.634,,
82.64,1186,0.00084,1085.856,1083.388,4.638,,
82.725,1128,0.00089,1087.558,1083.309,4.642,,
82.81,1135,0.00088,1092.007,1083.229,4.646,,
82.895,1134,0.00088,1101.008,1083.15,4.65,,
82.98,1084,0.00092,1114.601,1083.071,4.654,,
83.065,1166,0.00086,1128.996,1082.991,4.658,,
83.15,1121,0.00089,1137.38,1082.912,4.661,,
83.235,1111,0.0009,1136.061,1082.833,4.665,,
83.32,1086,0.00092,1127.694,1082.753,4.669,,
83.405,1162,0.00086,1115.758,1082.674,4.673,,
83.49,1104,0.00091,1103.643,1082.595,4.677,,
83.575,1120,0.00089,1094.221,1082.516,4.681,,
83.66,1015,0.00099,1088.383,1082.437,4.685,,
83.745,1109,0.0009,1085.448,1082.358,4.689,,
83.83,1134,0.00088,1084.19,1082.279,4.693,,
83.915,1096,0.00091,1083.657,1082.2,4.696,,
84,1052,0.00095,1083.378,1082.121,4.7,,
84.085,1048,0.00095,1083.182,1082.042,4.704,,
84.17,1078,0.00093,1083.023,1081.963,4.708,,
84.255,1099,0.00091,1082.885,1081.885,4.712,,
84.34,1076,0.00093,1082.762,1081.806,4.716,,
84.425,1088,0.00092,1082.65,1081.727,4.72,,
84.51,1070,0.00093,1082.546,1081.648,4.724,,
84.595,1046,0.00096,1082.45,1081.57,4.727,,
84.68,1072,0.00093,1082.36,1081.491,4.731,,
84.765,1056,0.00095,1082.275,1081.412,4.735,,
84.85,1062,0.00094,1082.194,1081.334,4.739,,
84.935,1075,0.00093,1082.118,1081.255,4.743,,
85.02,1082,0.00092,1082.045,1081.177,4.747,,
85.105,1037,0.00096,1081.975,1081.098,4.75,,
85.19,1058,0.00095,1081.909,1081.02,4.754,,
85.275,1038,0.00096,1081.847,1080.941,4.758,,
85.36,1074,0.00093,1081.788,1080.863,4.762,,
85.445,1073,0.00093,1081.733,1080.785,4.766,,
85.53,1025,0.00098,1081.682,1080.706,4.77,,
85.615,1048,0.00095,1081.635,1080.628,4.773,,
85.7,1078,0.00093,1081.593,1080.55,4.777,,
85.785,1022,0.00098,1081.555,1080.471,4.781,,
85.87,1038,0.00096,1081.524,1080.393,4.785,,
85.955,1075,0.00093,1081.499,1080.315,4.789,,
86.04,984,0.00102,1081.482,1080.237,4.793,,
86.125,1067,0.00094,1081.472,1080.159,4.796,,
86.21,1099,0.00091,1081.473,1080.081,4.8,,
86.295,1029,0.00097,1081.485,1080.002,4.804,,
86.38,1082,0.00092,1081.51,1079.924,4.808,,
86.465,1057,0.00095,1081.552,1079.846,4.812,,
86.55,1086,0.00092,1081.613,1079.768,4.815,,
86.635,1057,0.00095,1081.697,1079.69,4.819,,
86.72,1095,0.00091,1081.809,1079.612,4.823,,
86.805,1044,0.00096,1081.957,1079.535,4.827,,
86.89,1069,0.00094,1082.15,1079.457,4.83,,
86.975,1093,0.00091,1082.4,1079.379,4.834,,
87.06,1088,0.00092,1082.724,1079.301,4.838,,
87.145,1040,0.00096,1083.146,1079.223,4.842,,
87.23,1081,0.00093,1083.702,1079.145,4.846,,
87.315,1125,0.00089,1084.451,1079.068,4.849,,
87.4,1077,0.00093,1085.541,1078.99,4.853,,
87.485,1077,0.00093,1087.491,1078.912,4.857,,
87.57,1079,0.00093,1092.194,1078.835,4.861,,
87.655,1063,0.00094,1105.346,1078.757,4.864,,
87.74,1130,0.00088,1139.553,1078.679,4.868,,
87.825,1132,0.00088,1212.976,1078.602,4.872,,
87.91,1162,0.00086,1336.251,1078.524,4.876,,
87.995,1334,0.00075,1491.736,1078.447,4.879,,
88.08,1591,0.00063,1626.432,1078.369,4.883,,
88.165,1722,0.00058,1680.708,1078.292,4.887,,
88.25,1643,0.00061,1644.567,1078.214,4.891,,
88.335,1548,0.00065,1551.621,1078.137,4.894,,
88.42,1478,0.00068,1434.901,1078.06,4.898,,
88.505,1262,0.00079,1326.019,1077.982,4.902,,
88.59,1245,0.0008,1248.879,1077.905,4.906,,
88.675,1259,0.00079,1207.376,1077.827,4.909,,
88.76,1247,0.0008,1188.137,1077.75,4.913,,
88.845,1155,0.00087,1174.61,1077.673,4.917,,
88.93,1219,0.00082,1159.501,1077.596,4.921,,
89.015,1111,0.0009,1141.783,1077.518,4.924,,
89.1,1125,0.00089,1123.032,1077.441,4.928,,
89.185,1097,0.00091,1106.564,1077.364,4.932,,
89.27,1092,0.00092,1094.58,1077.287,4.935,,
89.355,1098,0.00091,1087.251,1077.21,4.939,,
89.44,1038,0.00096,1083.407,1077.133,4.943,,
89.525,1067,0.00094,1081.563,1077.056,4.946,,
89.61,1043,0.00096,1080.637,1076.979,4.95,,
89.695,1066,0.00094,1080.077,1076.902,4.954,,
89.78,1077,0.00093,1079.668,1076.825,4.958,,
89.865,1087,0.00092,1079.336,1076.748,4.961,,
89.95,1036,0.00097,1079.057,1076.671,4.965,,
90.035,1022,0.00098,1078.816,1076.594,4.969,,
90.12,1089,0.00092,1078.607,1076.517,4.972,,
90.205,1008,0.00099,1078.425,1076.44,4.976,,
90.29,1056,0.00095,1078.263,1076.363,4.98,,
90.375,1060,0.00094,1078.12,1076.286,4.983,,
90.46,1066,0.00094,1077.993,1076.21,4.987,,
90.545,1089,0.00092,1077.881,1076.133,4.991,,
90.63,1015,0.00099,1077.782,1076.056,4.994,,
90.715,1048,0.00095,1077.695,1075.979,4.998,,
90.8,1068,0.00094,1077.621,1075.903,5.002,,
90.885,1036,0.00097,1077.559,1075.826,5.005,,
90.97,1087,0.00092,1077.477,1075.717,5.009,,
91.055,1060,0.00094,1077.441,1075.641,5.013,,
91.14,1061,0.00094,1077.419,1075.564,5.016,,
91.225,1090,0.00092,1077.412,1075.488,5.02,,
91.31,1073,0.00093,1077.422,1075.412,5.024,,
91.395,1072,0.00093,1077.451,1075.335,5.027,,
91.48,1069,0.00094,1077.504,1075.259,5.031,,
91.565,1083,0.00092,1077.584,1075.183,5.034,,
91.65,1038,0.00096,1077.696,1075.107,5.038,,
91.735,1086,0.00092,1077.848,1075.03,5.042,,
91.82,1042,0.00096,1078.049,1074.954,5.045,,
91.905,1072,0.00093,1078.314,1074.878,5.049,,
91.99,1102,0.00091,1078.659,1074.802,5.053,,
92.075,1057,0.00095,1079.113,1074.726,5.056,,
92.16,1098,0.00091,1079.728,1074.65,5.06,,
92.245,1125,0.00089,1080.632,1074.574,5.063,,
92.33,1096,0.00091,1082.2,1074.498,5.067,,
92.415,1091,0.00092,1085.489,1074.422,5.071,,
92.5,1129,0.00089,1093.02,1074.345,5.074,,
92.585,1105,0.0009,1109.652,1074.269,5.078,,
92.67,1146,0.00087,1142.635,1074.193,5.081,,
92.755,1209,0.00083,1199.696,1074.118,5.085,,
92.84,1267,0.00079,1284.497,1074.042,5.089,,
92.925,1407,0.00071,1389.991,1073.966,5.092,,
93.01,1580,0.00063,1495.36,1073.89,5.096,,
93.095,1634,0.00061,1573.378,1073.814,5.099,,
93.18,1701,0.00059,1598.326,1073.738,5.103,,
93.265,1815,0.00055,1562.404,1073.662,5.107,,
93.35,1621,0.00062,1484.738,1073.586,5.11,,
93.435,1506,0.00066,1388.955,1073.511,5.114,,
93.52,1426,0.0007,1292.655,1073.435,5.117,,
93.605,1305,0.00077,1210.789,1073.359,5.121,,
93.69,1193,0.00084,1151.725,1073.283,5.124,,
93.775,1181,0.00085,1116.027,1073.208,5.128,,
93.86,1107,0.0009,1099.414,1073.132,5.132,,
93.945,1112,0.0009,1096.872,1073.056,5.135,,
94.03,1109,0.0009,1105.387,1072.981,5.139,,
94.115,1104,0.00091,1123.348,1072.905,5.142,,
94.2,1132,0.00088,1147.711,1072.829,5.146,,
94.285,1190,0.00084,1171.914,1072.754,5.149,,
94.37,1217,0.00082,1187.032,1072.678,5.153,,
94.455,1216,0.00082,1187.84,1072.603,5.156,,
94.54,1189,0.00084,1176.868,1072.527,5.16,,
94.625,1190,0.00084,1158.802,1072.452,5.163,,
94.71,1158,0.00086,1137.296,1072.376,5.167,,
94.795,1194,0.00084,1116.428,1072.301,5.171,,
94.88,1140,0.00088,1099.519,1072.225,5.174,,
94.965,1117,0.0009,1087.835,1072.15,5.178,,
95.05,1062,0.00094,1080.894,1072.075,5.181,,
95.135,1043,0.00096,1077.282,1071.999,5.185,,
95.22,1063,0.00094,1075.542,1071.924,5.188,,
95.305,1098,0.00091,1074.673,1071.848,5.192,,
95.39,1050,0.00095,1074.159,1071.773,5.195,,
95.475,1060,0.00094,1073.789,1071.698,5.199,,
95.56,1033,0.00097,1073.487,1071.623,5.202,,
95.645,1025,0.00098,1073.227,1071.547,5.206,,
95.73,1113,0.0009,1072.998,1071.472,5.209,,
95.815,1019,0.00098,1072.792,1071.397,5.213,,
95.9,1028,0.00097,1072.605,1071.322,5.216,,
95.985,1046,0.00096,1072.432,1071.247,5.22,,
96.07,1045,0.00096,1072.272,1071.171,5.223,,
96.155,1063,0.00094,1072.115,1071.096,5.227,,
96.24,1069,0.00094,1071.974,1071.021,5.23,,
96.325,1046,0.00096,1071.836,1070.946,5.234,,
96.41,1082,0.00092,1071.708,1070.871,5.237,,
96.495,1017,0.00098,1071.585,1070.796,5.241,,
96.58,1063,0.00094,1071.466,1070.721,5.244,,
96.665,1060,0.00094,1071.352,1070.646,5.247,,
96.75,1079,0.00093,1071.241,1070.571,5.251,,
96.835,1051,0.00095,1071.133,1070.496,5.254,,
96.92,1092,0.00092,1071.028,1070.421,5.258,,
97.005,1097,0.00091,1070.925,1070.346,5.261,,
97.09,1110,0.0009,1070.824,1070.271,5.265,,
97.175,1096,0.00091,1070.726,1070.197,5.268,,
97.26,1075,0.00093,1070.628,1070.122,5.272,,
97.345,1078,0.00093,1070.533,1070.047,5.275,,
97.43,1093,0.00091,1070.439,1069.972,5.279,,
97.515,1070,0.00093,1070.346,1069.897,5.282,,
97.6,1101,0.00091,1070.255,1069.823,5.285,,
97.685,1060,0.00094,1070.164,1069.748,5.289,,
97.77,1071,0.00093,1070.074,1069.673,5.292,,
97.855,1082,0.00092,1069.986,1069.598,5.296,,
97.94,1059,0.00094,1069.898,1069.524,5.299,,
98.025,1092,0.00092,1069.811,1069.449,5.303,,
98.11,1038,0.00096,1069.724,1069.374,5.306,,
98.195,1092,0.00092,1069.639,1069.3,5.309,,
98.28,1119,0.00089,1069.554,1069.225,5.313,,
98.365,1061,0.00094,1069.469,1069.151,5.316,,
98.45,1058,0.00095,1069.385,1069.076,5.32,,
98.535,1064,0.00094,1069.301,1069.002,5.323,,
98.62,1075,0.00093,1069.218,1068.927,5.326,,
98.705,1020,0.00098,1069.136,1068.853,5.33,,
98.79,1072,0.00093,1069.047,1068.778,5.333,,
98.875,1079,0.00093,1068.965,1068.704,5.337,,
98.96,1120,0.00089,1068.884,1068.629,5.34,,
99.045,1092,0.00092,1068.8,1068.555,5.343,,
99.13,1089,0.00092,1068.719,1068.48,5.347,,
99.215,1087,0.00092,1068.638,1068.406,5.35,,
99.3,1117,0.0009,1068.558,1068.332,5.353,,
99.385,1106,0.0009,1068.478,1068.257,5.357,,
99.47,1044,0.00096,1068.398,1068.183,5.36,,
99.555,1041,0.00096,1068.319,1068.109,5.364,,
99.64,1019,0.00098,1068.24,1068.035,5.367,,
99.725,1104,0.00091,1068.161,1067.96,5.37,,
99.81,1085,0.00092,1068.082,1067.886,5.374,,
99.895,1119,0.00089,1068.003,1067.812,5.377,,
99.963,1193,0.00084,1067.94,1067.753,5.38,,